timestamp,imu_accel_x,imu_accel_y,imu_accel_z,left_wheel_velocity,right_wheel_velocity,temperature
0.0,0.15581492765481533,0.003525540714563721,9.768544983785024,1.109885723881328,1.2860023182663876,24.0615744040521
0.02,0.1221884003352717,0.018542465106660116,9.832490174196256,1.1226399630053188,1.2853815524051369,23.853087574541437
0.04,0.1669222916146668,-0.028325448902981845,9.808969194900437,1.1127638428124556,1.3042510323337693,23.982027385766127
0.06,0.1716301499667578,-0.004026086725028287,9.795632255368773,1.1221867537701806,1.3054178494054562,23.914549108714304
0.08,0.09927719297176871,0.018822773225722435,9.80456952269295,1.130010087901419,1.2845959714624624,24.231492239849842
0.1,0.11541765809711872,0.004111431335198776,9.836969192502728,1.1313433373894402,1.2967765927982715,23.922697638182882
0.12,0.15106927700249173,0.03270568848867343,9.829540879578962,1.1459395833535684,1.3152990778720905,23.883820477426738
0.14,0.13985039043378647,-0.027600035628765632,9.808271701790815,1.1343983006024636,1.3149728352627583,23.78257028223757
0.16,0.1472017043405343,-0.02932237653846223,9.78320199730731,1.1201802134055405,1.3146295954457414,23.921898846532986
0.18,0.1261430288509111,0.0204303970340162,9.785175935024764,1.1311227525422365,1.3276354373796337,24.01522777678893
0.2,0.16928361536208472,0.022911572085658114,9.830925136652569,1.150899390418673,1.3100835196295326,24.092979851227874
0.22,0.16655518142263176,0.0022889145609647204,9.780365617686936,1.1483028918496925,1.321494217760278,23.9209861862432
0.24,0.1485550819660492,0.014719988068525751,9.809565071062186,1.1448934516352116,1.335549529706281,24.10091802672088
0.26,0.17486153041494312,0.02217409609868894,9.87975544695887,1.179929448048472,1.3267956153529044,24.002704686550924
0.28,0.15812671693854774,-0.008449807318940744,9.8244273271065,1.1717123537886156,1.339327471290174,23.96956679573734
0.3,0.1246974989992365,-0.005752393994675385,9.831704146788352,1.1659152823392445,1.3276468246549233,24.022827046383433
0.32,0.1551218014360285,0.012735802956075546,9.78683158990388,1.171901643802147,1.3337710720918499,24.123005709371792
0.34,0.1216366355716673,0.027579326314869194,9.782884426082575,1.1699804283528668,1.3270810120125203,24.014288595328583
0.36,0.16725813118687555,-0.013265789043181354,9.833671951277971,1.1631505374560718,1.3272177776145415,23.922138997421857
0.38,0.143719463426346,0.006649706600148286,9.806926966879177,1.1890460644616552,1.3459079072338442,24.045331241163225
0.4,0.13999941768775134,0.006278716537450144,9.84353559958135,1.1902952915226923,1.3580378908673363,24.044651230044884
0.42,0.12723379866288936,0.020076874198308656,9.817982615422785,1.1650443779111261,1.355251527450341,23.997377814577952
0.44,0.17443939638604128,0.012097393458622877,9.903522498369377,1.190110001607967,1.370855475795325,24.09492342498362
0.46,0.1396142902132035,0.0019067566498617763,9.803014496215479,1.1942338368697258,1.358168652522017,23.83066824918763
0.48,0.13235391161280816,0.03834818301376446,9.82475975762711,1.1906595604390409,1.3437298430996862,24.042965673420937
0.5,0.1338263440109264,0.003143501375071276,9.795386716876758,1.21785204882273,1.3711979943330461,24.077747707618933
0.52,0.1554880671457368,0.008637824854817455,9.84375115531204,1.2197601755830956,1.359785479678737,23.89969445303268
0.54,0.1508502596589735,-0.016799809000343585,9.829170665373917,1.199081441445731,1.3746338354411953,23.897538907138156
0.56,0.15154954961466208,0.0013072813098984285,9.794336709868608,1.2036022295876343,1.3533137030077198,24.096649999915826
0.58,0.15150218455241385,0.026450212095338536,9.8106428310439,1.2053913779833452,1.3762004205776805,24.111356025182687
0.6,0.19375671987882995,0.023088831114785165,9.853079212765001,1.2056338327126495,1.3887487842238735,24.126781226034403
0.62,0.1295225695893824,0.029214416048662976,9.850284350254535,1.2054816945361944,1.3902858589697868,23.96316046959902
0.64,0.1263279393757265,0.02879016224963104,9.783839896319263,1.222688740669323,1.3847207486501796,24.035284937692406
0.66,0.11822450530511777,0.060070366788236185,9.807758592704205,1.2401538402124264,1.3894495519895977,24.046461069156035
0.68,0.15338698725635921,0.003903581560458053,9.86515067734753,1.2389475493646802,1.3877129784807547,23.883822895255538
0.7000000000000001,0.16561446153009152,-0.012983968885610004,9.815644112543541,1.234233517547828,1.3924107797645384,24.033580299381708
0.72,0.1339282097762889,-0.0010637568815658645,9.824616790358077,1.2051530245715374,1.4043570745786866,24.032696133853396
0.74,0.1151439339860208,0.006416085966153796,9.845912062493628,1.2134480929811844,1.3932723477040871,24.08182421786471
0.76,0.11489109412995946,0.0015433996304564865,9.787142122490838,1.245591384194648,1.396920154379304,23.977073963188385
0.78,0.15110767598984362,0.02344294053292883,9.797160988113589,1.2539860420226583,1.3902972622279106,24.123434246674176
0.8,0.15274852272839862,0.04716154999626952,9.81276806504372,1.2461582797151274,1.4151987481629438,24.03042624146684
0.8200000000000001,0.14705504787104734,0.0534392783399059,9.85118310171558,1.240379504823719,1.4081572729888872,24.16137663685948
0.84,0.11613231486668589,0.033268802258602154,9.846768462889896,1.2597581228766601,1.4013353884392148,24.08492778615365
0.86,0.13785293669448873,0.06654347592757243,9.839475151548715,1.2565559701116384,1.4247817229372144,24.048014804414475
0.88,0.13423001348810476,0.01712480770518205,9.818208498413245,1.263164206914843,1.4181254208340464,23.931847240825697
0.9,0.13602930813027525,-0.007865063141840302,9.850133083265774,1.2359782770258476,1.4137294297404004,23.921398735603947
0.92,0.15158244248170358,0.04638071344206132,9.818283886039499,1.2607157665848014,1.432623713403878,24.155668108431435
0.9400000000000001,0.1346067937904447,-0.010924141899980214,9.836755224762394,1.2777503597601343,1.4228116646167395,24.098417067178428
0.96,0.14519562851302492,0.011277012797328935,9.84531283350256,1.2679849940006305,1.4130439681820661,24.005991991533087
0.98,0.12910400570667732,0.03730735274479322,9.865138018861135,1.2748821012243576,1.440817103315356,23.996054047140856
1.0,0.13382026417936174,0.025384194995460494,9.82151488037776,1.2684355154057392,1.425308701089443,24.04774917049409
1.02,0.14153840402064038,0.024138141685188217,9.81406303342622,1.2717873666802233,1.466370039973408,23.922983254701368
1.04,0.08847755180849831,0.004865398735344008,9.855710279494424,1.2873891286480041,1.4341523767606505,23.993783949453263
1.06,0.1160514090465258,0.028787758479131596,9.857834625265799,1.2692853312792476,1.4208772381659975,24.08080118493139
1.08,0.11140727449389484,0.049598241737904426,9.810158669147482,1.270908027427027,1.460980206039178,24.092102541239278
1.1,0.10630487384959986,0.030444089270520478,9.796321710492352,1.2763850464665385,1.4452587874249903,24.003550676745938
1.12,0.11449549185657897,0.013958480137825777,9.85462773584028,1.283965708530565,1.4507476345891024,24.16161766743277
1.1400000000000001,0.15783198141562918,0.0061289977287736185,9.783312804704652,1.2701754318234444,1.454353472767472,24.11779651834153
1.16,0.0978844196303626,0.015403121589320317,9.782239859050065,1.2961127378381212,1.4392567414710968,23.973296403238635
1.18,0.1427964320404324,0.039955386455103194,9.818056209876229,1.2896659945896598,1.433503905261086,23.933332349962296
1.2,0.07556471204221976,0.039492881491959814,9.825028057293144,1.3023318981115068,1.4769959650948228,24.083562745233028
1.22,0.10829920431101374,0.017121220656352718,9.796171516977763,1.275070818996229,1.4440921004913232,24.000591500596325
1.24,0.11976310634563453,-0.010574922778016319,9.828419962824762,1.3072829792848073,1.4783526836193968,23.98599384311729
1.26,0.12936105120088753,0.04254777556214032,9.829737912726248,1.3145023983573803,1.4694632050371088,24.055628129388786
1.28,0.13148582398070982,0.016698953714602376,9.811269038640852,1.3079238512890277,1.4681556268770974,24.095947260848444
1.3,0.13252715231155562,0.04893823468477393,9.874317681716716,1.3062224698958702,1.463905811033565,24.102350585366658
1.32,0.10295249609386763,0.020536952987038316,9.834427210927162,1.316936965958807,1.493838970681596,24.044011108829288
1.34,0.09907801532150082,0.016401550190311334,9.852097268658532,1.3233403812371112,1.4659635427151898,23.856683469328367
1.36,0.13104162848483253,0.039721639031844384,9.787681335165466,1.3181748136300726,1.4683616690366554,24.11714970864942
1.3800000000000001,0.10375447905285215,0.0843090308656165,9.787666983219335,1.3212194676454125,1.4838373950564658,23.97690970604891
1.4000000000000001,0.07557942152903005,0.052630670876024105,9.835990710404769,1.3340878201285855,1.472453106757809,24.06666599763449
1.42,0.07806373266627907,0.04086763698046471,9.871061448393853,1.3273829377085797,1.4711202205139033,24.032822816680067
1.44,0.08232398638594147,0.045811592654955074,9.79964221357251,1.313999151351379,1.482691416504396,24.22271980647061
1.46,0.11664394777995285,0.0041016625428074716,9.828675363427884,1.3368757365723596,1.4921560176215611,24.208426790226174
1.48,0.10667067316929216,0.01716467313547119,9.794413614162558,1.3251566755421833,1.5060594188674046,24.007637103264788
1.5,0.11925794075156251,-0.01012153692703896,9.807525258581014,1.3288880857053074,1.5100592719169683,23.93742370554059
1.52,0.09019115774569889,0.0751781133418622,9.830518136555273,1.3317620279930453,1.4732550076150353,23.9442807663919
1.54,0.10370373807412084,0.07160996266685307,9.813574326497257,1.342496280431063,1.503502626352707,24.067919567683234
1.56,0.11423909909051766,0.0493982071997984,9.79345048220609,1.3523867322386076,1.4851275035208047,24.003614167708598
1.58,0.08971630900742368,0.04472169778726112,9.793089326671842,1.337209060252138,1.4874918011258043,23.958503861676114
1.6,0.10771174633521856,0.011463095783719068,9.779335468295473,1.356319973238674,1.4932816256636976,24.006099777581635
1.62,0.07857859073771215,0.038582314495357144,9.838598376900512,1.3426714321038564,1.494462247760837,24.084688614590146
1.6400000000000001,0.0848769707452963,0.07928746369637502,9.841821124192514,1.3570409472277645,1.491591242945347,24.042931989351572
1.6600000000000001,0.08322887521062765,0.0465371299871489,9.84189295341605,1.346972675318966,1.4808039470356917,24.01120176973933
1.68,0.06168799068672812,0.033082913071028404,9.804546940226171,1.342008383482044,1.5202728832360617,24.021841950517096
1.7,0.1025628336692987,0.009679287159827264,9.85262203035349,1.3680729300648056,1.5165126883579587,24.038037904782062
1.72,0.07745111175626693,0.07290947569380307,9.845339319465598,1.3448673045686663,1.5090602569671099,24.06940228430974
1.74,0.08828951010343053,0.04436212604228989,9.828048505936898,1.3460670233941814,1.501219328503193,24.074694466571795
1.76,0.0987803794142942,0.01108732350209795,9.82414140502389,1.341898280626492,1.5248913702674203,23.920919803333117
1.78,0.09670334890177082,0.028192620565655552,9.812029896098679,1.3689494000430789,1.5135239324957634,24.066727022917892
1.8,0.10094708746175417,0.021580820288218953,9.833257165825186,1.373103579817237,1.51000126837377,24.02502653770173
1.82,0.08061698051904907,0.04494804711141639,9.86907932674975,1.3635670015365338,1.5008792105543172,23.97348696961606
1.84,0.07125782037367351,0.05217870245474335,9.857289229694487,1.3517376608239282,1.5242461576481747,24.02537333144696
1.86,0.07860322204706503,0.03841423365912794,9.822631904013868,1.3632232694105488,1.5170369554718701,24.14828085392927
1.8800000000000001,0.03716369108620171,0.06446378331617496,9.842696715634382,1.3619533929725476,1.524483609934167,24.12107949772862
1.9000000000000001,0.04191532794665768,0.05094077542769577,9.801889103099906,1.356337186833048,1.5250235485068173,24.06476585197592
1.92,0.04376718903313711,0.07105043869357587,9.847869866367082,1.3633888984594955,1.5311335152760825,23.985821087579172
1.94,0.05064073932741529,0.0430973294010118,9.80903974489501,1.3749446696187744,1.5283651548778934,23.949418307482862
1.96,0.08429942750358686,0.11158228096805722,9.847260199554693,1.3654185892530837,1.5245303773918404,23.983442982260485
1.98,0.050397429139707135,0.03981806972101541,9.90442289947902,1.375943958789666,1.534487719228828,24.06036463686027
2.0,0.06230608858599346,0.03347081514389784,9.816137711844801,1.356793035963193,1.539785143690425,24.062650198949353
2.02,0.10296326195372313,0.031438449442598645,9.90364967367556,1.392850924623865,1.5470490197379843,24.008478254599357
2.04,0.060295254927479495,0.04817014513076162,9.843036683407362,1.3736209999128197,1.5216620589557337,24.131410761660703
2.06,0.08635618367908332,0.018420170013324695,9.81222099425311,1.387686684222356,1.5452450336371906,24.092545551248893
2.08,0.04329167667738726,0.059121493152856086,9.811265700025473,1.3822931407705636,1.5194737634539635,23.8502836689632
2.1,0.06020763165029661,0.015540897059736158,9.890466090376647,1.3858263248513378,1.5467010986643093,24.07171927961194
2.12,0.04030234294996578,0.0572944984159931,9.84385663680876,1.3718494582718335,1.531827302204747,24.12402312123075
2.14,0.054284507340551534,0.027447503554637487,9.817567437975276,1.3769045287870547,1.5472984026074008,24.080379453889247
2.16,0.0824738383995134,0.04725545964719441,9.826823700629138,1.378445216303805,1.554932495320014,24.111304846910848
2.18,0.016987530725801003,0.06737823596159404,9.842868180378083,1.3873636344404747,1.5433954790279856,24.044305838216967
2.2,0.06973438930075213,0.10177157276771562,9.83206894926317,1.4016308711991385,1.5421985499730975,24.060762981675683
2.22,0.06351954077674275,0.03453147094681447,9.841122231866983,1.3939337370757237,1.5427309967814025,24.063034860009687
2.24,0.04142409500827848,0.053483046174795025,9.877002416239053,1.3818023539334015,1.5400255193086283,24.08190889552124
2.2600000000000002,0.018827676466326305,0.04240936749963682,9.804649868061569,1.3928563447411333,1.5569652096068345,24.02145343179664
2.2800000000000002,0.05548347019627475,0.039879493044629455,9.84915148066453,1.392326580028089,1.545606426036418,24.155780249937305
2.3000000000000003,0.03914410010788441,0.04336698484053699,9.831399463798629,1.3907468395428946,1.525868236073008,24.182803482651753
2.32,0.05689982884814495,0.0745345072521667,9.820931542075678,1.395196554021711,1.5573722811789446,24.027098857688262
2.34,0.050331297870396384,0.04867594216022659,9.86039738882257,1.404055726569983,1.5577303724377987,23.976683668381543
2.36,0.08853234640633256,0.10380433171143703,9.797242336480856,1.3902598984189198,1.5507019346343214,23.96315927159453
2.38,0.04120791653142417,0.06751579909105929,9.774801666671518,1.395013487827555,1.5432187917003477,24.103776261636963
2.4,0.020309599829862645,0.03937123637418724,9.839759926573638,1.4092795390247905,1.540302632873447,24.119005362352393
2.42,0.04908569800532378,0.0526096625901603,9.830875782341705,1.4051066125981548,1.5448285428086759,24.10531153228885
2.44,0.04881227705177952,0.04427620583510346,9.800692340025035,1.4141395054725516,1.5554211331086005,24.112789868467804
2.46,0.07600262726669937,0.07668094276561041,9.791932521913035,1.4166110684443354,1.5357221372259022,24.028306856046868
2.48,0.061613563808176106,0.028267427359369282,9.88314454614731,1.3895241632968942,1.5590999570186779,23.915164150180694
2.5,0.04837291188812845,0.034584452570165965,9.846636021432683,1.4068624177122435,1.5562534384793445,24.035192617966157
2.52,0.07475180890179395,0.04993000873386419,9.835733289769365,1.399722648771753,1.5690463825221017,24.207884182643472
2.54,0.0071712497334386095,0.07577429162831137,9.890304320604622,1.3936107621642417,1.5638058487995923,24.09735821813889
2.56,0.01962085455572156,0.08712794227869386,9.861155362930791,1.3984747770304244,1.5501564973478106,24.11073685246465
2.58,0.01117802670051244,0.09042590075678504,9.880015870940795,1.4041008681964995,1.541045881868055,24.14975259425096
2.6,0.023328665524881647,0.07375632957414663,9.806464799719276,1.404878335906056,1.5502844116531598,24.01076570811278
2.62,-0.0026078181657491553,0.0618446558398812,9.805708071415893,1.4024428695416684,1.5728251070034898,24.09645014875406
2.64,0.04642770927662726,0.07973399859799102,9.851748544133898,1.4090368559480158,1.5624467658803294,24.1201475957347
2.66,0.023737378059006095,0.041287377567884864,9.846862456481922,1.434274627221747,1.5659413105120144,24.005169108111993
2.68,-0.008728558591566127,0.027617008361737347,9.867919372235667,1.393164343392183,1.5541153824513723,24.10947870612317
2.7,0.001405650963861832,0.07357250625675456,9.796085474179916,1.4223702230654887,1.5656687734305312,24.184598487543386
2.72,0.03339161075643465,0.045052611126003554,9.854622032455625,1.4113702922397313,1.5460081472513032,24.049512382559243
2.74,0.04527090294528495,0.06418327646187139,9.861940237039951,1.4077045865570923,1.5709252913002019,23.944378789317266
2.7600000000000002,0.07300555185589414,0.0682019740907969,9.86078876706523,1.3924044780812543,1.5503574445824146,24.096574685867957
2.7800000000000002,0.09470917644556479,0.07108862297597861,9.827392566994002,1.4206913906381406,1.54248110887086,24.030842649370243
2.8000000000000003,0.03100420674958857,0.08519562040985867,9.850700280786944,1.399105351454947,1.5851373212794142,24.098452540616446
2.82,-0.00530687994508508,0.08339159571573838,9.818517959927819,1.4222194446863574,1.564126980942076,24.017193017587083
2.84,-0.03507551207796542,0.07095712486265368,9.830759728589817,1.4317536285333217,1.5640898018288614,24.09004196974184
2.86,0.02371919542183137,0.05852056369367244,9.812183470172483,1.4018865606936755,1.5445334039576235,24.18394149758646
2.88,-0.004489441750292464,0.06981655619122956,9.819463234989794,1.426747080827587,1.5696495929276144,24.084138660911325
2.9,0.004264963023537731,0.05603423580797871,9.832578318079799,1.4156414818628835,1.5724511525892162,23.955029813546453
2.92,-0.0018313667184267912,0.06432366547496213,9.82650095111917,1.3947435346690207,1.5617410664558469,24.117619280777127
2.94,0.008781005754748859,0.12090616781400648,9.819976069675427,1.4039109321773595,1.5727524117444713,24.089752853203567
2.96,0.037787788702767486,0.07247359020882817,9.80662690478492,1.4179900657473152,1.5756541616477593,24.105817635806403
2.98,0.01390999522994887,0.07811842073442574,9.888314687518262,1.420443665534471,1.569278630384231,24.167214381387378
3.0,0.004871612308985273,0.05528424506691411,9.826943164316509,1.4008244501376885,1.5424082783888402,24.047952336022693
3.02,-0.01819174511321176,0.0900722637448055,9.847875802700807,1.417123604150892,1.5525804470879736,24.06751364984086
3.04,-0.03529673878398125,0.08514976738312795,9.795821267308257,1.4251931336060304,1.5809686747373137,24.008802124241797
3.06,-0.00670780061101094,0.0855614662789796,9.873905171795927,1.4270703538935026,1.5649040456267196,24.10722396790823
3.08,0.00299392537462016,0.07477889588467021,9.844310808431002,1.4130594455139724,1.5649069964615165,24.10572538974948
3.1,0.04743456039996993,0.09142807507028494,9.82920224576731,1.4216520633344467,1.5556573212073783,24.072175313629533
3.12,0.005400430045527696,0.0964377128377629,9.829587365269942,1.4280478498980593,1.557512729172834,24.153319237040325
3.14,0.02562893787971091,0.0769222438599432,9.86236738375925,1.425880916802553,1.5757056627109793,24.011216165869396
3.16,-0.012495232574203674,0.0692207831220897,9.766970456524929,1.4262805250849047,1.5786338864313458,24.104906788950046
3.18,-0.030699711864788395,0.08965371080935397,9.820358170431131,1.4184881484453118,1.571469777227348,24.143438658886417
3.2,-0.026257102950825895,0.05392552924292553,9.838150523427553,1.4163721702011547,1.5688406611328152,24.052584317190227
3.22,-0.02130250370228953,0.05789104574954978,9.838026408715129,1.4199802909600292,1.56939737070977,23.98666519096722
3.24,0.049007807892877876,0.0714229202440335,9.904087999231672,1.4095410284044414,1.562212803526629,23.96151812598252
3.2600000000000002,-0.02575991625814475,0.03789690952991968,9.833178322903395,1.4281971928358672,1.5506447237013319,24.110171057683583
3.2800000000000002,0.014726618730593818,0.08950751670295894,9.86653623624751,1.4016479096234074,1.548227766600873,24.23386700523782
3.3000000000000003,-0.0298080211578812,0.05392531900502867,9.887233832282458,1.4117629711425446,1.5752976913733236,24.050166232871163
3.3200000000000003,0.015066562611248148,0.0639781758653665,9.858869032473708,1.416276397484897,1.5615251633087608,24.135648572486563
3.34,0.00042457496266677837,0.06936320694573195,9.82541898994881,1.4211472335630202,1.5663098289017363,23.90611517732203
3.36,-0.014079925840754647,0.07463173005825187,9.810312344339986,1.4228164310184663,1.5633120150375348,24.130602681019496
3.38,-0.012135993225027678,0.06718650442698114,9.86121961134839,1.4309010455299005,1.5634654964227417,24.014267324884308
3.4,-0.02842757883740659,0.07292209643532635,9.883868730380067,1.4165383139274434,1.5639272835442795,24.070472813999928
3.42,-0.0018348772920948886,0.07328327296512487,9.856550595097573,1.4083103572965092,1.5670604021429746,24.10884692305354
3.44,-0.025277742080423264,0.06573786539283673,9.87389555909652,1.413749332514354,1.552000996494946,23.970273654971148
3.46,-0.045447288752538735,0.05941359509424924,9.90801528581417,1.4116955195629977,1.5710726352488635,24.355386616845415
3.48,-0.04764693306742781,0.09670229345403548,9.864307635162952,1.4197591898693351,1.5514253614440998,24.055909089188148
3.5,-0.01226234957694146,0.0331763530885757,9.816013536137048,1.4035410470082423,1.560733839644027,24.153493573535524
3.52,0.02203462732060537,0.07133812817687601,9.844961365191216,1.412089003198129,1.546028477840058,24.224945264406216
3.54,-0.014295373813839935,0.06625870898849749,9.878095119963529,1.429683528894694,1.5556941881296187,24.129586162306722
3.56,-0.022100389362957475,0.08419308904673842,9.837774542491557,1.414850649497648,1.5502474977983594,24.008511904493936
3.58,-0.012814658064404186,0.046908249237318844,9.881790374621405,1.4020999002413788,1.5565567480672424,24.11554464946996
3.6,0.011877379240244207,0.06617152050236919,9.84262740742204,1.4087906349167476,1.5631211700094554,23.960915829974873
3.62,-0.016086788887288036,0.07428942262808912,9.852812005450337,1.389400329359095,1.555964296351559,24.082046813347755
3.64,-0.032629418527792046,0.09790373901696198,9.835836676217317,1.410665948667026,1.574233298547961,24.243276130411363
3.66,0.00453002669156212,0.08330786705136295,9.848744882598318,1.427238737773742,1.5619894757640818,23.99682743465324
3.68,-0.013165171051196946,0.053152547875100056,9.850218318545606,1.3983865401931517,1.5511362360491714,24.04438846488852
3.7,0.013767115544827992,0.06722715781716522,9.804843627691106,1.3951663043398195,1.5519354140052086,24.259209366659764
3.72,-0.02077431347849979,0.09484832750137771,9.834166768129482,1.402652222633225,1.5559353073998947,24.097580672298353
3.74,-0.056680857896757905,0.05325863216399791,9.814525201821638,1.4178401741860578,1.5585479391116885,24.04062220983405
3.7600000000000002,-0.06097251998031402,0.07584428673242383,9.835325868688821,1.4251000070264388,1.5384973164209257,24.143853481757247
3.7800000000000002,0.013819914496239205,0.07737401224081468,9.825772043230158,1.4119471021591,1.5565239277457028,24.075811751184034
3.8000000000000003,0.014968390693609085,0.06997620903526827,9.871093591590794,1.3940022610222198,1.5373827454961662,23.896636620465827
3.8200000000000003,-0.033266317770615866,0.1317385479459086,9.87152935384827,1.4060208165800459,1.5541554643783484,24.005676351438368
3.84,-0.03899811718622932,0.06969671182069506,9.8600973684582,1.4235046603466566,1.5590385851550668,24.279670901551054
3.86,0.0064926666704419045,0.08707065331660496,9.814543806371299,1.4018546777365426,1.5503032370531749,24.14196195682026
3.88,-0.05832940023621319,0.06286951116793153,9.843926051088026,1.4057079360571356,1.5233047408921727,24.233403756672264
3.9,-0.05361596677447164,0.08886684528987406,9.812843354358519,1.406034890408293,1.527983210894793,24.034571614787822
3.92,-0.015743777808840752,0.09584015199777526,9.84298392487127,1.3874836173631777,1.5506670947518753,24.113103122781443
3.94,-0.04225576629534009,0.06677379115675361,9.862994239275936,1.412221849955275,1.5197244050496035,24.104592774300674
3.96,-0.03306682375990275,0.07754385931343433,9.87175311943855,1.4100676354382629,1.5495721326162475,24.07491962785847
3.98,-0.03755735414400967,0.0608332707049658,9.85891278032655,1.380870066094115,1.5525225418825892,24.136120270640067
4.0,-0.02554870894051686,0.05594790215807898,9.878693945098895,1.3867625425655314,1.5532168767938823,24.030718749074726
4.0200000000000005,0.0006979725478650084,0.09966513639820668,9.853865904066181,1.3896241039446284,1.5386313822404123,24.217257328976597
4.04,-0.032709590235696126,0.06793859066328806,9.841672166745678,1.4060454247228644,1.5446027828816369,24.158477491757527
4.0600000000000005,-0.019344950166094364,0.030831872947498888,9.869491203745483,1.3902807436453262,1.5414691222905594,24.107767203674296
4.08,-0.08715093167538213,0.11449287649820306,9.870449446824903,1.4010247383443724,1.5238055738851979,24.13295614761698
4.1,-0.037551737647037814,0.06322160067167745,9.83482043860858,1.3944025986399524,1.5451293193916753,24.098704036840783
4.12,-0.057835562691385664,0.07440991612657771,9.857535805285838,1.396131274275635,1.5507210170309695,23.98560805789691
4.14,-0.06762998461895067,0.11222548946443436,9.840839260818644,1.3995685360672359,1.5428395877721441,24.044835060312028
4.16,-0.05950209062310275,0.07663860887908469,9.798117397681752,1.3965128960658528,1.5300394561172308,24.110281742163668
4.18,-0.046273712689914454,0.07626891594390355,9.85946942641909,1.3927712895644468,1.5415817304872408,24.097061432019093
4.2,-0.015379084325849276,0.05503048709119582,9.816237527398266,1.395394679885076,1.5462665428418885,24.177691088331198
4.22,-0.07177612054328675,0.04695167389639507,9.856939324089883,1.3934482118694504,1.5440541613888052,24.171311807606063
4.24,-0.03817376442768461,0.07637111975065347,9.810483514954221,1.3883285204986873,1.5417559602414628,24.082293426592184
4.26,-0.05135059549101922,0.08700163245024288,9.83100626363617,1.3852519551342835,1.5146583492808645,24.0511204218905
4.28,-0.04772852147541454,0.08589862954867361,9.838289050649072,1.4075006132568708,1.5336433784168608,24.188663613920323
4.3,-0.014741580689721843,0.07020167458880344,9.879302529846115,1.3833941067620392,1.5351968955627449,24.1440191986855
4.32,-0.026614944992258176,0.08026691549691448,9.836051231449565,1.4006095094044253,1.538201509658778,24.07974676982161
4.34,-0.0068736332998467625,0.04314850970496717,9.822643836647034,1.379200444011895,1.5320412334623452,24.03871475919983
4.36,-0.044395415040512795,0.08912308540020117,9.858755042976684,1.3932597684737715,1.5414705380140008,24.07660378506789
4.38,-0.05813894241053734,0.08317098120494387,9.844349682286346,1.4020963453457966,1.5067348999103272,24.162624945533235
4.4,-0.04652785702053751,0.11943528433209548,9.869664940486054,1.3799792302134726,1.5296558029015044,24.266811463058588
4.42,-0.03504337360552215,0.08012694339065773,9.824730128354528,1.3757710386319482,1.5279182106091156,24.115512352520188
4.44,-0.03684925886845608,0.06113532855862312,9.855423968673472,1.3772388031662157,1.5312086666278528,24.06642372913032
4.46,-0.06851448553299,0.07898169862817617,9.912016577783291,1.3804193774710918,1.5366536558398358,24.306237978467895
4.48,-0.03926712379615986,0.07344369122214532,9.844419509641954,1.3829098782008948,1.51139853186721,24.104508283223975
4.5,-0.03593164411833125,0.08869345054171221,9.855193106931907,1.3783658018060307,1.5344140236862418,24.071328964135137
4.5200000000000005,0.02120810593954449,0.08053282039529151,9.809121488452785,1.3736373761797913,1.5265235515094777,24.102871186538636
4.54,0.0051175564456909725,0.05478781139624522,9.8294449438975,1.3964512688151023,1.5155479445817421,24.099484775242022
4.5600000000000005,-0.06319289371557488,0.04725972657540655,9.862383655670332,1.3739676118602384,1.5073760337521864,24.23829603432399
4.58,-0.04908810189552443,0.08521668457491303,9.842763685268869,1.3688349984255168,1.517471218304155,24.0033513668302
4.6000000000000005,-0.07851475555082621,0.10760082157509601,9.866491720123358,1.382403338636234,1.5174090068058474,24.185409002073825
4.62,-0.05670507463364558,0.08150158169419155,9.861873404982227,1.3816233424966318,1.5170086701785577,24.13756941314026
4.64,-0.03403950392462817,0.09615274855042016,9.818417516021505,1.3863435182359276,1.5063726003962814,24.094508475455484
4.66,-0.011759087414322453,0.10011124757765874,9.876868493330319,1.3905561235727237,1.5177818620879329,24.112768534801468
4.68,-0.060091928653138546,0.08515525154886829,9.82053556521631,1.3737986277873566,1.5066808730232022,24.12018552012682
4.7,-0.058161544402346804,0.0634900238797884,9.832595759823505,1.3665116846982763,1.5219515773208114,24.147884230394723
4.72,-0.09541684922062399,0.08364254514510389,9.857571313105185,1.349430411169069,1.525939531941928,24.105329698863684
4.74,-0.045711747810955466,0.10383046393654338,9.891124410211102,1.3581333938131783,1.4997655487240278,24.136793043257384
4.76,-0.06809972289701245,0.09023553517151461,9.826965831025495,1.368657558797698,1.5075472702680026,24.080444085626084
4.78,-0.05465345118079223,0.09454744679852134,9.855868013996277,1.3538237972820069,1.515729935866771,24.31778335935234
4.8,-0.06320098490907508,0.07027253134200956,9.856188833231823,1.348844847902502,1.5078304524039732,24.224568829927534
4.82,-0.043481986648179524,0.07541340058139297,9.868833993840758,1.364419101651306,1.4906135285815552,24.18351008507647
4.84,-0.08489861094293097,0.07701905561133746,9.882111683089004,1.3705954110394185,1.5118579612588272,24.10951758002545
4.86,-0.07744559866409165,0.07829607756104674,9.842519212806044,1.359432603568875,1.4962278813837053,24.21133791086327
4.88,0.01266348561731661,0.10260735291129587,9.87802674866173,1.369937723130587,1.5033706651098862,24.17016149599749
4.9,-0.07253571322676838,0.03222617785826465,9.88609723005966,1.3662113652381054,1.490510975340463,24.156340443639888
4.92,-0.06753655337671055,0.07969800505351571,9.89754608033748,1.37061710876143,1.507488211331561,24.104772253187797
4.94,0.006054770250078466,0.07741102272594771,9.86560233954968,1.379942276423979,1.4944283776238334,24.16997821579805
4.96,0.033022985049676365,0.051480767658172666,9.857096576530424,1.3834354737359635,1.5067456571419433,24.283294338727334
4.98,-0.06861304489271534,0.09225210845307061,9.841401677293392,1.3637037547586988,1.4947015119325688,24.15566101926488
5.0,-0.048234936646630304,0.06422887191101646,9.816896492975962,1.3508852185577753,1.4911536112741977,24.128710260373783
5.0200000000000005,-0.030179399060742386,0.07147647718228396,9.846526430043015,1.3552039148708275,1.4992109029041532,24.158341249229036
5.04,0.004824740455318555,0.11548717052021187,9.856387051942312,1.3694254123760674,1.4834747109128827,24.15450316821235
5.0600000000000005,-0.06272347746269695,0.0986015605023189,9.850943872427472,1.3438737168801032,1.5113382972543081,24.107827319981222
5.08,-0.04382838596982477,0.08977853975424575,9.86872593072543,1.3664017791850107,1.4943575918901941,24.09289854850151
5.1000000000000005,-0.01789253476766753,0.08578721698845382,9.817529677631011,1.349351541776552,1.4859924623255816,24.216253876468485
5.12,-0.02607161033000739,0.07475712477428553,9.849434907207256,1.352454376856284,1.4868238564340055,24.24981788115988
5.14,-0.04594481738222647,0.11791349298830175,9.903952980284808,1.3412456038152445,1.4901640223405181,24.33525463457519
5.16,-0.03947212326836956,0.09384070441156712,9.879072412500081,1.335231920758446,1.4991267337337348,24.191246439981825
5.18,-0.07007017584016066,0.06267394555064851,9.86968511832166,1.3448351392106697,1.4794128785467506,24.164519727577137
5.2,-0.041209074400654015,0.04952668474608343,9.864144564941231,1.3598158754664675,1.4838695380489872,24.227923221954867
5.22,-0.04145721066175774,0.08872547793843184,9.84533806678698,1.3389366421097921,1.4862716120458033,24.083737056047802
5.24,-0.02852203791193522,0.07612753085759463,9.810717680066512,1.3612604732457119,1.5014110848562585,24.208381599768877
5.26,-0.047724326105957976,0.04851856068745333,9.866092438055512,1.3385943588125657,1.4952080528561265,24.24067427419667
5.28,-0.021553774301041204,0.08551768015837007,9.793547514447011,1.3328377588449278,1.500359453680825,24.24010805696049
5.3,-0.007511800265399618,0.07141027611917998,9.846712535314094,1.3452627326333906,1.4840203828449576,24.29214992526573
5.32,-0.02841792569176965,0.08724521758244932,9.854852370488919,1.3487330922073697,1.4973013066060263,24.111492128285033
5.34,-0.02297035769198243,0.08530406816130583,9.843855714880013,1.343049221885552,1.4949219740847477,24.120574839236262
5.36,-0.02988278287775796,0.06413758125796926,9.909410883382655,1.3419140862634429,1.4885042617298367,24.14334715725423
5.38,-0.030643891604692244,0.08878961597153265,9.90082491159398,1.3556808793520194,1.4886063301537307,24.07191230648505
5.4,-0.04810637260949521,0.06600074753647245,9.881125872780501,1.3398579362605447,1.4742028337159405,24.20482636476562
5.42,-0.021563723008189928,0.06712361826326071,9.832260848569632,1.333473295395413,1.4977566229691441,24.216363468641642
5.44,-0.03130429435582801,0.06495452086579422,9.903517038429138,1.3261275665126988,1.4763601788996317,24.207873110620014
5.46,0.02407347916115498,0.09803442644331418,9.871042718963938,1.3494851080217372,1.483760038167326,24.17549658538644
5.48,0.011706835660768827,0.0696147836982013,9.83210503041087,1.3317953117101657,1.484294952133204,24.244607936810198
5.5,-0.017340053013544535,0.10248270257238329,9.856557670753872,1.332086512485421,1.4631933020524062,24.21075449961805
5.5200000000000005,-0.04540986352899859,0.1105074672235491,9.87978853852872,1.3452141512266031,1.4757885667075745,24.11713629352164
5.54,-0.05347914052046924,0.05986365090568917,9.84093580705589,1.3545772658118735,1.4777404178025746,23.92993901828858
5.5600000000000005,0.00478592579215012,0.01601473392309101,9.859503893008434,1.3359024017535224,1.4739944938529435,24.140064898280585
5.58,-0.017736257933228864,0.09511779037422916,9.86398447836816,1.3313855035128643,1.4741724496042545,24.17025297219176
5.6000000000000005,-0.011602464941907418,0.06717748371585064,9.828632390978276,1.3320787153938283,1.4889431155684536,24.17151424467518
5.62,-0.0665106591860685,0.056478888740311435,9.849481787750065,1.3269731994039642,1.4652116004417326,24.153985606416313
5.64,0.001010915618973495,0.06181033390632322,9.830677091926688,1.3273772733193245,1.4602776147281329,24.12597445960435
5.66,-0.010082833983267148,0.06506689299311091,9.878109087082494,1.326852072865557,1.4665981629851526,24.101772811699757
5.68,-0.04846184861217355,0.09908190984473234,9.833768913076957,1.3388997448648527,1.4794193518904915,24.087476721035397
5.7,-0.03173656993937532,0.07610756767791403,9.863842483611368,1.3283607613761597,1.4799235910787938,24.205507505478323
5.72,-0.012592705398694,0.09834903781121891,9.82186976674517,1.3423003188384242,1.4771131753770135,24.25837085066032
5.74,-0.01710115925440957,0.08232562875046474,9.828363188883209,1.327024090860391,1.479734040969628,24.071806107288584
5.76,-0.02493450305749593,0.06601722343612616,9.827226705718102,1.3240113913920402,1.4727558982253792,24.167598468499243
5.78,-0.01942521940351871,0.06415176752558024,9.849608156998505,1.3399706146010575,1.4646118972184967,24.2361965501433
5.8,-0.022335828148996727,0.08294463430711682,9.86143004985359,1.3269331122829477,1.4599541480537495,24.158584586199485
5.82,-0.011411502172779062,0.0878710056849815,9.86611153756637,1.3249947835464984,1.4564155475102254,24.23157281205119
5.84,0.02238157225686687,0.09114487897068385,9.812758093776855,1.3261522101609973,1.4664135578128343,24.261156908454932
5.86,-0.07774354341010553,0.06572129795950088,9.852918474144658,1.3400567325499704,1.4762349564971753,24.20703795038841
5.88,-0.018661091812019012,0.07419575160830962,9.838439811227802,1.3280409933426884,1.4704047626065597,24.136428508839963
5.9,-0.007481381048961477,0.08210854508258578,9.870627398835621,1.3370815641211027,1.4679673242820128,24.281884185290323
5.92,-0.0036405096431561656,0.06248108785098452,9.850650016891818,1.3218636985874812,1.456904530236279,24.15587930588291
5.94,-0.019476412711151386,0.04719080132091669,9.855387303588081,1.3347440866525928,1.492989795886433,24.156478318835667
5.96,-0.05322701377968408,0.05348996971366573,9.838850672548428,1.3258840597522736,1.4586999130804406,24.21966061178208
5.98,-0.00023194830770473414,0.06451706010725215,9.900656068586118,1.3320073586784302,1.4679367328433124,24.15494809597646
6.0,0.035636394134142935,0.08230089211631594,9.825515031498696,1.3325398457352078,1.476555758991579,24.16175789785299
6.0200000000000005,-0.045002297845360716,0.09395189585014979,9.847674968810528,1.3131665195203854,1.4667628957333674,24.15036051753903
6.04,0.01583844287874812,0.04136362853962238,9.860421240524897,1.3230293276279117,1.4581033493927842,24.166403118045505
6.0600000000000005,-0.013065195042217115,0.056246543480961766,9.851509386281984,1.3316266239857883,1.47411180764075,24.19720990576039
6.08,-0.005473512810036585,0.06074172339844316,9.83875627383969,1.332982393652167,1.4525015498990321,24.024233617518373
6.1000000000000005,-0.02934496114754967,0.08349551652987959,9.812623016411875,1.3341329248648235,1.4832090553275048,24.174812067328304
6.12,-0.010459974565644672,0.05673785527592281,9.840686967243457,1.322445179752277,1.4685220838203161,24.04204548985204
6.140000000000001,0.031332270642610335,0.05840101169492186,9.834048809899507,1.3366177357315479,1.4630966252037527,24.151310945906896
6.16,0.014332835096477224,0.03844811648718871,9.90007193836767,1.3144798565211466,1.4514178147667811,24.211484116782046
6.18,0.044014887831815896,0.0760451562888899,9.914765766047905,1.30595922064408,1.4540328156762716,24.158834125263347
6.2,0.031088155940831214,0.06283481795651755,9.856934770830213,1.3180045013616928,1.4650227829070483,24.241864212965528
6.22,0.013580674971350671,0.052664451163925735,9.823140993892537,1.3326316739836792,1.4844825603605738,24.21403425816368
6.24,0.047157178534461615,0.06023441827985796,9.87676550335922,1.3097228336082811,1.4679165692711806,24.01433490524986
6.26,0.015493378663433695,0.08764071791774203,9.833841129485084,1.3058170985591433,1.469109582768816,24.283252749255663
6.28,0.02618218323500405,0.04467600489577628,9.844691553268783,1.303260582586408,1.4695727663321485,24.207988697942167
6.3,-0.0009639041369848018,0.04761031172270769,9.842751524277505,1.3277944260628907,1.4894454516230624,24.143071705762814
6.32,0.00908563384669259,0.08915515685787964,9.84601120044214,1.3059476556026897,1.4615051591436603,24.15162212357501
6.34,-0.009038495241478116,0.0652890666502718,9.849706058340809,1.325922221841406,1.4817085463936055,24.02302980120313
6.36,0.03411506824916427,0.07682898931328601,9.825785881730443,1.3171788470691557,1.4622237301934164,24.20782222054782
6.38,-0.019100729708412336,0.07112617461954493,9.841121597041726,1.312801181777857,1.459349951505187,24.243091056138205
6.4,0.030899794973489936,0.062038582960874646,9.884218194327614,1.310587120502261,1.465787501316362,24.137190135656795
6.42,0.007561482569356919,0.05543035470523283,9.857927454757213,1.3227242300363375,1.4659567263982765,24.11979047535947
6.44,0.042597967903658086,0.07867550321129779,9.86194515420168,1.3132265826236558,1.4726619224120558,24.204025440805395
6.46,0.0330796171992951,0.08493603963088073,9.803051173755717,1.3208451918243835,1.444062695740203,24.288952501939566
6.48,0.06081697959914124,0.08301501796425326,9.882596175484773,1.32505571692899,1.4690630380490792,24.28124087716507
6.5,0.034564717854855764,0.03726075588122252,9.841806931152101,1.3273350216940725,1.461900066457175,24.26088545487155
6.5200000000000005,-0.022009779058092843,0.08670435891426757,9.887086623262606,1.3307384372701763,1.4609723364150293,24.356778100474543
6.54,0.016614386370308265,0.05308041378796987,9.86288589636896,1.3232494474525867,1.4555996666386497,24.269711111412505
6.5600000000000005,-0.01001410467934868,0.04476855673079593,9.845018442527735,1.3113283360860362,1.4652762510789819,24.288892754550364
6.58,0.0073275688481789,0.05610968857984521,9.817164924765326,1.32673375421127,1.4641463562999253,24.203922039212806
6.6000000000000005,0.05906415490027207,0.0757429909497323,9.913519833696832,1.328905958225031,1.4654555542940177,24.16981655910059
6.62,0.03822081681460452,0.06955098876600094,9.879268019712814,1.320815987325582,1.453766532235644,24.288921411796384
6.640000000000001,0.005808145450435825,0.05325238135724035,9.880800983349808,1.3200604384194223,1.471586146249654,24.120259852885667
6.66,-0.0010629274265870972,0.07472897180707797,9.904731233152594,1.348019376378959,1.4631617083300006,24.23324208088332
6.68,0.026097584381301348,0.0603855701644309,9.864898264026037,1.3106854720685026,1.455222281997837,24.151301075504623
6.7,-0.004138762726039427,0.045738811500131954,9.89314076862717,1.3289213579051662,1.4666069348922615,24.227670911760615
6.72,0.010492885624637936,0.04264461471107148,9.847400194327811,1.3348338042439178,1.464884979698971,24.22255863248709
6.74,0.036066482637410455,0.06461431336866327,9.877836976731329,1.3213699492243833,1.473595522755731,24.2147605482785
6.76,0.0581423611217922,0.054360793813987486,9.843677161993043,1.3235267684903802,1.4681486693593826,24.20090057462875
6.78,0.04547013207645557,0.028099832977024303,9.846864304123212,1.321646808000424,1.4598691664092083,24.24551640101231
6.8,-0.026041626806030005,0.07214922854594497,9.861916110241564,1.3261334162289142,1.4661029684179336,24.258933550101954
6.82,0.03983703561858762,0.04519385566843464,9.827835571929453,1.3356159897471378,1.4583630153350142,24.092192994026444
6.84,0.03501346471604052,0.0862324215995757,9.86778472551993,1.3251489747325245,1.4876648810638016,24.201071365689348
6.86,0.044541903134985454,0.025918236235061516,9.85177786595063,1.3587670470263347,1.4899572769816127,24.171849632842353
6.88,0.07557893289566445,0.04994922639575054,9.809914632080881,1.3236838595547542,1.4918738013919897,24.221422230627397
6.9,-0.01543143480926204,0.03914658242436052,9.84818805245262,1.3425564879239569,1.4725130426287618,24.173197559807512
6.92,0.022344316902444608,0.03321781934515672,9.85102830824893,1.3348106242880327,1.4921302795289337,24.30909062176301
6.94,0.052863253596563534,0.04256800548042611,9.880999787772698,1.331066027765812,1.4839975569614856,24.202217377000665
6.96,-0.00048449478942690777,0.08729015918251756,9.866832148953977,1.3453186479921844,1.4724950690056073,24.287197745380865
6.98,0.07691470258906274,0.05431865553838927,9.89591145656158,1.315259768042372,1.4752410508535183,24.132695948874332
7.0,0.050181110051945275,0.03518701539481174,9.8727489573795,1.33618149009675,1.48063652935163,24.187006237757444
7.0200000000000005,0.0630883863564812,0.01401603197054941,9.845917883313914,1.3254546865811083,1.4842313405679781,24.160884094046146
7.04,0.028596928136708773,0.0157262944255942,9.858327740751747,1.3289669116666252,1.4877066509228194,24.242150149812968
7.0600000000000005,0.06415625416897033,0.03898677013173625,9.851104460298227,1.3292245122156645,1.4849507129508002,24.116452682366717
7.08,0.07146027161801353,0.036602324917230436,9.872023040510626,1.3251633851722868,1.4823944284997055,24.07513983638168
7.1000000000000005,0.05150120287378007,0.0443527075429205,9.861336451792047,1.3190421732126683,1.5003315748391903,24.162393440527524
7.12,0.05246426456798713,0.0029452898839088387,9.844143207062013,1.340241318790538,1.4866237336100672,24.257925265148643
7.140000000000001,0.054281805836311,0.04610820716706391,9.860087630013389,1.3364993293065157,1.4870219087172396,24.148852500892673
7.16,0.0268523422259228,0.0680469586057835,9.871416675449844,1.3349756082796993,1.487549723939172,24.235473555728834
7.18,0.04565404709124857,0.07949738496868237,9.83474028091939,1.346415589835495,1.489600156334778,24.16303706895162
7.2,0.046428808437315186,0.008697529003583768,9.867838818734853,1.3442042230955942,1.4781370043625082,24.075190799786462
7.22,0.060719420848262734,0.030102205990846575,9.820458422132136,1.3378961302377257,1.4827785510066571,24.284168658474343
7.24,0.07701575653384468,0.02858673280607433,9.887575802272151,1.3719718125949278,1.5183367500431397,24.268557177962546
7.26,0.026434978251270783,0.04812494953606019,9.873126177241694,1.3525588736197849,1.478458965997796,24.214016831035263
7.28,0.05064381992799684,0.02035196728151785,9.900687990083991,1.3677615980961804,1.498785965182842,24.22122951616437
7.3,0.09166831832106928,0.07792738465261817,9.83204937919908,1.3401166999359138,1.500617096713097,24.201790820430478
7.32,0.036897111053328095,0.04468510233583284,9.888308078045112,1.3477338075088512,1.5084611927470453,24.136382100816768
7.34,0.035777242901291084,0.040882113430941655,9.883372899544153,1.333842450739251,1.5031621447227954,24.32406363561059
7.36,0.0622294019374731,0.07472757630914026,9.855428328287354,1.3439262938676535,1.5195815028763153,24.21212926659086
7.38,0.07911099745285728,0.042078510785174786,9.850572895435034,1.342414866862783,1.504265732146702,24.249704340989364
7.4,0.0591077975655957,0.04992961546495586,9.832864295838714,1.3792501816862137,1.51656201791389,24.18146216356415
7.42,0.0928578903020233,0.02642961169185022,9.826350790923168,1.3434281467100848,1.5147149698865616,24.25739271697876
7.44,0.08185620007846114,0.01355553485432448,9.841217379565938,1.3490873224807933,1.5209843128478375,24.314170462702375
7.46,0.0822748693286029,0.028276335218013406,9.828605168711608,1.3379824745054494,1.5070791487777582,24.236482373210546
7.48,0.07586563793219886,0.08373909263295587,9.89989306208943,1.358964525477254,1.5120930782837605,24.25259239247395
7.5,0.12097755159588225,0.05217404285454626,9.822448260147217,1.3457495664659918,1.5057225440817135,24.294582223871164
7.5200000000000005,0.05842062379749036,0.04451643250611134,9.86372062141996,1.3650780343489923,1.5123286144966392,24.281524408970483
7.54,0.014214798185623129,0.019008467582025533,9.870888656910243,1.3391661243626385,1.5142141135127294,24.309062863802513
7.5600000000000005,0.10515195785612047,0.05626926277412208,9.86893042187897,1.3570057729860479,1.492639499162994,24.25179557310046
7.58,0.05433521863811937,0.010396828476406016,9.87112118680822,1.3409522856421479,1.5133474507331521,24.252346726584122
7.6000000000000005,0.06919599389044655,0.005714172200779993,9.883644128148296,1.355708874488975,1.5250586617186175,24.246464831029037
7.62,0.09994801371384447,0.025380350266196106,9.848830333096364,1.3589608290920343,1.504054612183506,24.297090183464512
7.640000000000001,0.027851822171488523,0.07514891115323052,9.86216053862731,1.3570766202949016,1.5091049518238666,24.193964509850467
7.66,0.03730481182843288,0.0735162108636884,9.852625238487912,1.3593135593072447,1.5319517672944647,24.271543074614
7.68,0.029240161961291054,0.02603107860178995,9.892519038551773,1.3752907835343346,1.5352683283350541,24.413488467513762
7.7,0.05008307972158628,0.021067610025778668,9.912443288095096,1.3886013932257357,1.5170857030428404,24.25900428837545
7.72,0.08157986106878991,0.001238429780464366,9.83008815618446,1.3715418164144806,1.5265039251282841,24.135109894255788
7.74,0.08433400966117299,0.03509869707293624,9.809147958425088,1.3608541192471584,1.525468342418165,24.208264386763638
7.76,0.07876427324634097,0.03626910621383639,9.874141867333208,1.3714148244020665,1.539517266488289,24.281734536530585
7.78,0.03715394555662604,0.04830912646245265,9.88666011835694,1.3685643014861626,1.5239262806837293,24.179018147610194
7.8,0.015323583046205742,0.05021970847389684,9.908811566976823,1.3823470739584693,1.5269988628917939,24.155028140529275
7.82,0.07502532353485733,0.027543108417031663,9.878319850812835,1.3776908761121767,1.5457316593766666,24.12351293074951
7.84,0.06244947538751078,0.042096549748955985,9.894751694135179,1.3604061532441727,1.5238421623252518,24.217785599248018
7.86,0.08629283158103207,0.016446142562850846,9.901342387146299,1.388547767515388,1.5304599135692438,24.363979485791205
7.88,0.09290810168867392,0.0406812057720308,9.896443132579918,1.3886333464064282,1.5383448012287995,24.19314166215563
7.9,0.07935297986433688,0.019275681654751846,9.881834641619413,1.3953237191068717,1.5538418416829554,24.3062976934634
7.92,0.0954244127877184,0.03808802006145655,9.827731451797932,1.3766292178893957,1.5282695799965373,24.214501430385628
7.94,0.0826618221409653,0.035945986733644644,9.85955782824581,1.3862350012423088,1.5347098453825523,24.206437600823072
7.96,0.09067977282883898,0.029227752811284546,9.867247146002121,1.3728203099863887,1.5493639131358306,24.279369704390295
7.98,0.06029396377317389,0.04321683000325435,9.857229368058338,1.385609350562362,1.5525414791603307,24.115911501957434
8.0,0.07388903319724502,-0.0046089294147413015,9.858749511163683,1.3915560115819854,1.5488317102290055,24.372751031133703
8.02,0.08375299031203982,0.0049724308722721745,9.898859536179012,1.3827003238527722,1.5472034239656576,24.282780983606887
8.040000000000001,0.09978668125454765,0.020339977728098525,9.840733840638162,1.3939690918543002,1.551331657374388,24.32450280226442
8.06,0.06985530250594449,-0.003654941904077367,9.87960586403916,1.3937203111176546,1.5366366668509246,24.220353280149507
8.08,0.0931387283728871,0.01654095490760244,9.867514642362533,1.3890460892484984,1.5544072043626123,24.28128842032983
8.1,0.07385951976691271,0.01665234941737595,9.838138463776406,1.409032552206164,1.5699069655591258,24.316795744815327
8.120000000000001,0.07794798303637891,0.04980415807451155,9.832634033284839,1.3942357480691225,1.5435858194247591,24.235508445000175
8.14,0.10199054663297594,0.025925526500347008,9.816987617093663,1.399439663964771,1.5506568643744316,24.173502730519925
8.16,0.031776964025895804,0.043126683425982054,9.871630469328647,1.3849815161087178,1.5562468535019658,24.168502805760927
8.18,0.04952732386107243,0.028033721369091748,9.857879599873437,1.406389907294776,1.5586025337275518,24.210721193740497
8.2,0.04520480167015962,0.010747938649728162,9.838785088601755,1.397984286362244,1.582089172162468,24.263298968807398
8.22,0.0242238767585023,0.023595625712146146,9.81249482844746,1.413888039423545,1.5560974282033533,24.232707819102817
8.24,0.0658969464301578,0.03496879657970356,9.870182289941914,1.3927743513429947,1.5558473057976216,24.207174544000203
8.26,0.10186301618755705,0.04370627814460852,9.85498752510421,1.4117695409674795,1.576629670650288,24.30116327111111
8.28,0.07626291407172106,0.016649060001405112,9.841453690504077,1.387225335078895,1.5642112145162823,24.210629815182692
8.3,0.08857175595469116,-0.014198887436569343,9.835159479459556,1.416794163241255,1.5803233215046282,24.200300333736934
8.32,0.1110834791833834,-0.016149574338747433,9.853259679812181,1.4104829907847634,1.5722483939926775,24.32385240797681
8.34,0.11725519436742576,0.011132471863127057,9.870936684052054,1.4178257249232045,1.580586961181938,24.293340350210038
8.36,0.08252846839707613,-0.0296439180736661,9.850899042655472,1.4094370611479736,1.562100725671276,24.15188687384151
8.38,0.11827423433244777,0.05246875055979723,9.82939643746069,1.4075572001153236,1.584123444425228,24.144015229943264
8.4,0.08689913997710765,0.02795706340573631,9.85761658385232,1.4143213555995713,1.5835365465385562,24.162457167019603
8.42,0.06380604518406122,0.0027560112221426715,9.885167640906255,1.4222070741704391,1.5806004582881925,24.249219290495816
8.44,0.07000958811365579,-0.007273405828866496,9.859994025633295,1.4276772796330455,1.5726262096342587,24.346538346776004
8.46,0.047968280458298033,0.03493139155528207,9.860655441901464,1.4265783570305584,1.5889245806118448,24.36864631470024
8.48,0.06287387815639423,-0.008454973971406878,9.850759783530625,1.415804065981002,1.5958022900310826,24.31348861646285
8.5,0.07620571139001266,-0.007098683692477693,9.836615703670615,1.4451833017180633,1.5850585192246076,24.407073291036333
8.52,0.10530797237041635,-0.0026056348071335136,9.83573979316905,1.431772235822351,1.5870656630301327,24.27076583140865
8.540000000000001,0.12828306985643032,0.014441841750371791,9.817219945505812,1.423860463881636,1.6019319023160905,24.34395125642759
8.56,0.05073797034661251,0.02402225586517183,9.888250151444787,1.4359684223439437,1.6129092682550552,24.210125778502952
8.58,0.0951250374998506,0.034905396667150895,9.87023320888599,1.4359299718482337,1.6070185393965961,24.131927009761785
8.6,0.059285708122661096,0.031396481350948774,9.86068551584555,1.433262081820638,1.6017331756352169,24.232316313392086
8.620000000000001,0.09714476110564271,0.009957118576273695,9.865963546698554,1.433733947079293,1.5988230286906366,24.24759013745112
8.64,0.08196122805173293,0.029796185747683696,9.867011988255927,1.4481577364955722,1.6027972279804992,24.464983965870957
8.66,0.03940980729638439,-0.0045906040256814586,9.840109015957369,1.4572351284986538,1.5916341294924834,24.258752940895377
8.68,0.1083169030463792,-0.028144722692362713,9.850289179788147,1.4212443451288646,1.6051614982638938,24.177955831502864
8.700000000000001,0.06989442436733226,-0.0057072198499297545,9.846512731752089,1.4555572363804394,1.6197196641425151,24.337145364325778
8.72,0.07156481413814664,-0.008967382766975387,9.921099906565344,1.4450981047750162,1.6107314341673225,24.19979950304188
8.74,0.05804428051290923,-0.00603983871527947,9.883764862373578,1.4489117382975383,1.6058928043898286,24.272642533051194
8.76,0.0682896546207966,-0.013145840055892834,9.862401522349696,1.4617060366440466,1.6067786324552271,24.33193504129637
8.78,0.09518550405420172,-0.00373908125427146,9.892297875673673,1.4232847243765874,1.615449514617492,24.18781393076336
8.8,0.07958149093591954,0.017324641676264615,9.889083429140298,1.4596219887317068,1.6052267590138565,24.384334566536012
8.82,0.09233634848974782,0.03867038525512777,9.82352022124269,1.4659380895702188,1.6102905692197675,24.353674742669376
8.84,0.09295788239394687,-0.03070095437186436,9.852403255502495,1.4478633801665726,1.6365039642258405,24.292385634280837
8.86,0.11669925323844008,-0.022508172005278018,9.857506889936225,1.4424435113155378,1.6126107877128077,24.404850448432622
8.88,0.07486877508994469,-0.013142018301262326,9.87314276568871,1.4744125503620262,1.6167483728131657,24.23472869648644
8.9,0.046255548137426925,0.01744199910469792,9.852193471286245,1.4420759528567424,1.6294647539843001,24.329434587254454
8.92,0.10957897629727,-0.0025316368513205534,9.85526789192336,1.4654490246424632,1.6239166047087958,24.28879927462157
8.94,0.0743155049353632,-0.013474798799732412,9.84613448702368,1.4731119761734273,1.6309983742745524,24.21605876214694
8.96,0.11015470159966648,0.01478207010895211,9.883827783810048,1.4684606195747956,1.6405131422087134,24.219056371856272
8.98,0.09154440777338041,0.019015217651188503,9.82145625097621,1.4717497244981617,1.6181801420795707,24.43075703799444
9.0,0.07833456312984448,-0.0010477789778444934,9.846790411454048,1.4650566656577066,1.6429538242939978,24.3536089702528
9.02,0.0899683793796108,-0.017556923479228638,9.81131606213707,1.4739318878865928,1.6313413839799267,24.34061683007557
9.040000000000001,0.12964326654108493,0.003613153634605937,9.831599820896788,1.463811832994659,1.6360515909816817,24.22002714574723
9.06,0.13239446024123225,-0.007017612813348185,9.865202253522703,1.4666925941865556,1.6598731504988986,24.327276573371382
9.08,0.08178953137085457,-0.007732209194488097,9.86560785010907,1.4744163615493255,1.628358322962632,24.241790649732316
9.1,0.08362792626164817,-0.013719501680608625,9.849304543878477,1.4602343401263536,1.6500160169157176,24.407668712527894
9.120000000000001,0.10608047063493263,0.014468784750750328,9.885163476703909,1.482967729440844,1.6571054674644445,24.369450311099556
9.14,0.05756744076538937,0.00040753895604802356,9.890843601898858,1.453946834505944,1.6406974554909999,24.34655618959548
9.16,0.08655347158592466,0.015564991604802873,9.855189699053282,1.4839312698386444,1.6425541219273663,24.339023892822127
9.18,0.0770811871296921,0.021018788715316324,9.863108228889715,1.486412406129099,1.6472340912180496,24.267171499068592
9.200000000000001,0.08505986799704922,0.0029134526996635905,9.845459995081798,1.475430397264857,1.6457059386466886,24.313760680017662
9.22,0.05584576658789231,-0.016953826418077772,9.872371172745995,1.4725588665415572,1.6549349595525247,24.39868539323778
9.24,0.03639210775015763,0.013424453469871894,9.826772017512623,1.4823304407370035,1.664855743355589,24.313303330943466
9.26,0.023741569869686382,0.001373797536904777,9.901443127113403,1.4943128756029533,1.6539461185411621,24.209304794274512
9.28,0.04705003732241192,0.0435708227270923,9.884969794720405,1.4928670870125111,1.6685017725873121,24.37755038764581
9.3,0.06291994076004873,-0.0028510950111573057,9.826419090844476,1.479778460061505,1.6748527700279048,24.22339235147633
9.32,0.06644299228230328,0.0043444316299149875,9.836588055988207,1.4934236754710892,1.6667680177985056,24.275973610101
9.34,0.12157337765995638,-0.004356556838555973,9.866765188190316,1.4964485610665303,1.669315008791551,24.241036484128053
9.36,0.10014619161169828,-0.012702213931284213,9.847697327144555,1.497475556602617,1.6597110321321302,24.07080353492993
9.38,0.047781868117604445,-0.016450755225400758,9.869687414953749,1.4868532194763744,1.6409986363099536,24.29413596324367
9.4,0.07984876691780442,-0.005944177011174147,9.847005526342961,1.4997035329233663,1.6746500736340058,24.45452772527729
9.42,0.060285224437201176,-0.0019590889174898735,9.894027926483943,1.5087391084516546,1.678309173622208,24.30689636234755
9.44,0.0626435217356668,0.010152210734816178,9.856031695051604,1.5063338933450752,1.6743065788321723,24.51895338740878
9.46,0.07366060948857561,-0.007310845557074918,9.916253477877888,1.5064688454350619,1.6825035631789644,24.27022347226556
9.48,0.08376611375706086,-0.023297288794451924,9.87072125455374,1.520157483505229,1.6694326670135,24.300788385553933
9.5,0.05904936525739462,-0.021127545847774175,9.821833230851023,1.5067717131250817,1.6815952500919218,24.27532568993954
9.52,0.09335584118754785,-0.04159945047379474,9.907643917251045,1.4980240806707699,1.6926113806930352,24.289082306567497
9.540000000000001,0.037424669873336834,0.017534061447618217,9.882860837600433,1.49939104316711,1.6860112033611034,24.314447182051996
9.56,0.06533013811406468,-0.027062422684925386,9.864809114673573,1.510859641629669,1.6942310850725981,24.406262657269647
9.58,0.12929712340025223,0.002561919502890503,9.871382021582882,1.4960301618967724,1.6957282047467546,24.21892222900298
9.6,0.06910109744632295,-0.011802989282139699,9.825399979581531,1.5085870118932376,1.671439707527783,24.287318802783844
9.620000000000001,0.0985086204756544,-0.011805637182478089,9.809925913433501,1.5176145455312817,1.6922457673850024,24.33647235420711
9.64,0.06410587478071074,-0.020774622543150198,9.853899946577508,1.5259446572999342,1.6801180047476094,24.390210866689436
9.66,0.07546250006992601,-0.03472613119477394,9.889320528011396,1.5000376068528138,1.6767291967095879,24.11577311880683
9.68,0.05863441922072758,-0.03888442028289493,9.864650779706773,1.5176969078029838,1.6862965557759506,24.177117133732878
9.700000000000001,0.05489059707235334,0.014512992820225355,9.897393345621683,1.5172357220041097,1.708026048691812,24.29282742791706
9.72,0.03874651530198247,-0.018318713306526492,9.88759978945483,1.5194883725359278,1.6863598141221787,24.37971303181434
9.74,0.06806004173071231,0.0013668094077715874,9.854988913032466,1.5217072031336605,1.675510714643399,24.25230805320987
9.76,0.03506930012331297,0.006020018388714354,9.883971259368982,1.5211358328657725,1.6799232801952124,24.344868667691834
9.78,0.07203902085050874,-0.030433571590823723,9.89234507914008,1.5365179941408602,1.7004107707090843,24.450172261548836
9.8,0.08155981433415695,-0.01428394168436012,9.852177722273067,1.5361614483199189,1.6892771915928781,24.293361607688148
9.82,0.06260591680512613,-0.022390150562927102,9.84873918021882,1.546261854868434,1.677652623684964,24.274872083850834
9.84,0.04528830544023482,-0.04696980997965136,9.857495351465056,1.5258123616665347,1.68523269422074,24.33146437583692
9.86,0.06278261447501918,-0.02806913383756323,9.793586137759682,1.5228816851515679,1.7021323626790419,24.308708860240518
9.88,0.0426928208195946,-0.013142209302550433,9.860793601053617,1.5183625707799675,1.7094171499419197,24.315317609239795
9.9,0.07276188311604251,-0.03540451327567522,9.871691950825227,1.5238782775015924,1.6983037386142172,24.281019559328307
9.92,0.0025391633281563464,-0.0324511333836247,9.857191205735653,1.5372314436445749,1.710368508620998,24.275508472717476
9.94,0.038872964037534444,-0.02995067613061843,9.86209194743911,1.5397644085874265,1.7141248074882494,24.21631580231863
9.96,-0.0035804242994771918,0.015219475734891675,9.852284069120492,1.538807835759277,1.6982139052044252,24.3463241469376
9.98,0.007728151344840922,-0.06421853796277477,9.803340557779089,1.5263614030560952,1.7058927723171629,24.214671471287307
10.0,0.07810427064376188,-0.018029792234624406,9.894725337355029,1.5273483424279726,1.7021323068932366,24.233071528000035
10.02,0.06527880801825064,-0.033653163690058774,9.843858349102357,1.5544161261525973,1.7145360473333466,24.203204421337983
10.040000000000001,0.023792253845495884,-0.04192180351790465,9.837502659581416,1.5274230986563053,1.7040127484882197,24.27353151126329
10.06,0.003085541321475503,-0.03518711637308383,9.88678856713081,1.5507787360495002,1.698968635735651,24.302288575936842
10.08,-0.03460724684828248,-0.016801522390811723,9.87719783860208,1.541508401918495,1.7125688394194887,24.212828524847232
10.1,0.024765599858239944,-0.01617654312730686,9.85944754874912,1.530964271955997,1.7240660026412513,24.280089500758447
10.120000000000001,0.09769973437971566,-0.027463137621661513,9.871744969054781,1.527251273857656,1.7189646473201905,24.314924111608367
10.14,0.046887388593386106,-0.009843590819578307,9.82352509132449,1.5329908356597293,1.7248002027646971,24.177030532565027
10.16,0.020841643908318455,-0.006835141108955615,9.850265766174356,1.5448180663381543,1.7247713388533403,24.242410825038885
10.18,0.045263569478809336,-0.016396087662406692,9.884545308107933,1.5322848022453313,1.7168280137404288,24.448128894227924
10.200000000000001,-0.006591637996409473,-0.044157657564644084,9.835133995761554,1.5576419247965354,1.7112329666640624,24.24765692880883
10.22,0.02378533825729493,-0.02385355114775381,9.826990302501136,1.5407131617658043,1.7092875817936837,24.361611662725128
10.24,0.03248200904648856,-0.024265289169578402,9.85379908786023,1.550467185771371,1.7028713344295103,24.26492756181657
10.26,0.026609959659642354,-0.05106717303665675,9.854270030279611,1.5503076034376415,1.7313607519567762,24.322126602214126
10.28,0.04729099391263955,-0.06664686129046674,9.867791787545906,1.5609538993859076,1.7168621594588855,24.24292383484142
10.3,0.034886506830626475,-0.0762154072434961,9.8170318202999,1.5409560300285217,1.7037983797461211,24.155157944007076
10.32,0.041719443351763044,-0.03486284419269425,9.7876336263464,1.546973660225795,1.7338419443741715,24.27260923075089
10.34,0.006534496799356214,-0.030797442146040504,9.87428052843666,1.5324520820766725,1.7230685202592888,24.34382483831762
10.36,0.04491350880340825,-0.060890349298637694,9.824056137920673,1.5480266115391828,1.7324050748882498,24.36333053002138
10.38,0.061907892049692055,-0.01682872692305724,9.835761159677105,1.558900091849434,1.7206876947196343,24.321100853070693
10.4,-0.004360681939628949,-0.03519781670489915,9.79630953968209,1.5501751203654048,1.715920132749241,24.24805682047047
10.42,-0.0035982852140709065,-0.01174405965011004,9.876342030499812,1.5715629465156051,1.7288339808742401,24.38445827356492
10.44,0.05068244822200111,-0.03181142889159931,9.859405736601353,1.5540644627529976,1.730160167943907,24.253670446782866
10.46,0.01119087988489554,-0.06103593019438766,9.858279495134198,1.5438694655140168,1.722545681826642,24.259160428156033
10.48,0.049749784267453676,-0.031028801210801166,9.857987644317598,1.5542124294431,1.7389242367608502,24.234189125245763
10.5,0.0022639822618976315,-0.02727540878015553,9.798773136364701,1.5353768501836176,1.7356611620754332,24.279354223187845
10.52,0.0483702226314934,-0.05211129840095875,9.825523253019329,1.5423516906412604,1.7322447285092941,24.290140631502975
10.540000000000001,0.013941747617027487,-0.07047987386076497,9.838733729195065,1.5384766616056278,1.7158609519359453,24.337842190153207
10.56,0.0157648820901491,-0.040109239605433375,9.831182135830906,1.551087538564288,1.714788500817842,24.206734417979845
10.58,0.047075942479493545,-0.0626071369404301,9.84298601067385,1.5505751714149394,1.7395963883514516,24.278727076814988
10.6,-0.002442936459680167,-0.020645487401978743,9.855801184678874,1.5634596503474059,1.706004467535311,24.252098692267367
10.620000000000001,-0.018288657128661026,-0.051677660610652,9.874678843357385,1.5506200808643043,1.727232280331016,24.350940508378837
10.64,-0.007341669625178451,-0.009510858047660213,9.812383781019612,1.5417617297207458,1.7298350232794357,24.341527583225552
10.66,0.0138090304850206,-0.0869526505709845,9.84903829845144,1.5675301097831216,1.7236701882420764,24.23555392898625
10.68,-0.03801960676184179,-0.042237983185300185,9.866917383989298,1.5226142707271673,1.7283849773386992,24.3578827220582
10.700000000000001,0.015680510427546614,-0.01680825876189451,9.825895631430834,1.5525427238960439,1.7330840588048513,24.31490424809487
10.72,-0.015110259526930235,-0.06366218977700093,9.844045122081251,1.5544050834283445,1.7231237114454514,24.383136217808072
10.74,0.025665782333238542,-0.04949786712723533,9.86039728946375,1.5521705357009654,1.7378966943841783,24.268580554962373
10.76,-0.06427820261260395,-0.05483003828810938,9.848880569956975,1.5572921112422207,1.7349657744470113,24.368096090766205
10.78,-0.02548136265340961,-0.0608978607424898,9.865321473468414,1.5533891758709706,1.727371534810849,24.39064851070326
10.8,-0.04937756636430097,-0.04278092508233549,9.850699485566198,1.5572431803598887,1.7209085069032704,24.327552606110252
10.82,-0.029273122428365,-0.07403034394380147,9.840400294657996,1.54616185092043,1.728239436205096,24.490455239863227
10.84,-0.0038298975251504254,-0.050787463605566276,9.818743266746063,1.5375040745709678,1.7501974310916153,24.362535217262042
10.86,-0.015908762701890497,-0.03869199945381936,9.854103705600819,1.551514652034572,1.7214325225812506,24.46483043251341
10.88,-0.019171237123001963,-0.05375515309127304,9.850286623213552,1.541569500707117,1.744202038103619,24.52614302031074
10.9,-0.01822702493908958,-0.0698963343185155,9.822828648599812,1.544378987485667,1.7112011245785743,24.191152685384
10.92,-0.010574961974488161,-0.029725069091746676,9.862062326299483,1.5630814169293052,1.7199750279923502,24.417705215130013
10.94,-0.04228674821920406,-0.03615769847641029,9.879069838028407,1.5668217903868564,1.7229577423330191,24.367469010290872
10.96,-0.0008169540947403943,-0.07201815441090174,9.830729584125653,1.5624168846272097,1.737647237439927,24.34622297576601
10.98,-0.003337316695377769,-0.07750562704546224,9.82890061090271,1.5602844223157855,1.7284533619422593,24.274470643592597
11.0,-0.011694465121511616,-0.07108849928508984,9.827846549979942,1.551003646617402,1.7407150480695144,24.25662366967784
11.02,-0.00882395555380051,-0.04156853243554806,9.804841922689912,1.5602248271939028,1.723973532957411,24.244265872132274
11.040000000000001,-0.016743903647371626,-0.047383951330828095,9.896778051957781,1.5532655362825354,1.726418042573099,24.506969394530074
11.06,0.025305479435695943,-0.03751257676147864,9.83530077677686,1.5687959055497933,1.723297562170427,24.36868477377477
11.08,-0.02916539767886653,-0.060253444685066875,9.824917814095041,1.5397243314975153,1.7464471670004524,24.221548525953036
11.1,-0.03608125832039362,-0.07263870160689306,9.818065407868716,1.5551884544433943,1.7145505589810075,24.246662103229
11.120000000000001,-0.04865769945315778,-0.036178010575444605,9.836390573716,1.5353491600529368,1.7202118662823414,24.169450333209276
11.14,-0.05704035994482004,-0.06603216091844019,9.828563865919234,1.5542779846793213,1.7150261260526127,24.427333089714775
11.16,-0.06375857593888977,-0.05163778665267503,9.8817496354118,1.5297785567952966,1.730021850711958,24.33625957474038
11.18,-0.05627816085513694,-0.08677008861483743,9.814432434525797,1.5342820295328705,1.712332686554166,24.373959349703746
11.200000000000001,-0.0372348971683127,-0.06756791158492043,9.807039969449193,1.5330118085207853,1.7413894106503764,24.334007952870184
11.22,-0.028518136259019895,-0.03638113554335584,9.85914974631486,1.5477527282891932,1.723371038078287,24.410225916938476
11.24,-0.0370023118521108,-0.07128914028658727,9.842526177212385,1.5481428256708887,1.7260554970136535,24.30324207760798
11.26,-0.05882207124677477,-0.0410653683077629,9.839483293036666,1.5684413703316444,1.7259013796897429,24.35921365613668
11.28,-0.018579133948371077,-0.10436482403884328,9.858897776021728,1.5423355630283495,1.720379664407103,24.358090308823737
11.3,-0.02399547880405878,-0.06931841922070772,9.848174000960675,1.5502586803484932,1.7210780939616477,24.243930661052104
11.32,-0.047865796305741205,-0.06194098647108678,9.843434497422356,1.5433997769609942,1.7199612999902796,24.279499548541487
11.34,-0.06158778789974827,-0.024043527843279677,9.809311901181127,1.5479108833551245,1.7235303563105262,24.31369843332965
11.36,-0.03294074242389999,-0.08265314605644261,9.802598183871806,1.5416624574545172,1.7093096349863135,24.36419854245713
11.38,-0.043334675946066686,-0.04622667278256258,9.826636756904685,1.5503990696038252,1.7067794764160007,24.450180419382207
11.4,-0.08561555059510653,-0.03887963063341762,9.816884644377401,1.5280264719888617,1.7240484699532275,24.348953460137356
11.42,-0.052485767315090893,-0.0748168458871301,9.850569614676695,1.513202083055249,1.71492982291111,24.333265146917867
11.44,-0.045604556618262196,-0.06822335964803775,9.798716701832246,1.5409478370720147,1.6939664501293368,24.365668212779916
11.46,-0.0760120735315585,-0.05828315604768795,9.83235008296796,1.517793487769095,1.7083328918555098,24.3288927233284
11.48,-0.050132694611574,-0.09110528706050217,9.8390461330722,1.5480056533243496,1.7274102934834707,24.340229460298346
11.5,-0.09260300438130975,-0.07093449585510636,9.842224953082425,1.52842473514866,1.7095045719562907,24.46390612333469
11.52,-0.02417580447956231,-0.03666400492340095,9.853033186243387,1.5225149577280133,1.7047683582443898,24.325375925020744
11.540000000000001,-0.02772383971959184,-0.052083916535891915,9.834737736281998,1.5588677734547467,1.6940725029950305,24.364764029582176
11.56,-0.06657153954149576,-0.06601974125258395,9.826055522086843,1.530617273206134,1.7022566530858123,24.292799803372496
11.58,-0.05250191704121865,-0.060967889597452626,9.873695829431147,1.5276139807364766,1.6951844177934106,24.445851222859947
11.6,-0.12315941559940696,-0.051952752669996306,9.834423437162467,1.536082240660893,1.7099735743489692,24.272659614789628
11.620000000000001,-0.09313634104146483,-0.04846106520937936,9.877742370308173,1.5356188773356083,1.7050067440619434,24.340407947966085
11.64,-0.07288136947804745,-0.07537282776080048,9.833975217488325,1.5376916794954472,1.6996843165809672,24.425346081646975
11.66,-0.09364220589623055,-0.03388225462342023,9.841535378444686,1.5117814109290446,1.6944748718060847,24.27805475362975
11.68,-0.05027346360326075,-0.03857867389663537,9.838311594182716,1.5292576378605498,1.7161126725686313,24.4173514736644
11.700000000000001,-0.01948774503854306,-0.05168626938210765,9.84739834032662,1.5197249630399843,1.692519576569229,24.184581642518204
11.72,-0.10011437364565692,-0.08241320704790732,9.830958709740468,1.5121817643809332,1.6912546333397422,24.26174071851729
11.74,-0.092906281735336,-0.08627786347485836,9.843694773594684,1.5205835228191884,1.694512375085797,24.342147572738412
11.76,-0.06734580249108339,-0.07272160909713385,9.879397682574636,1.5006755886177756,1.6945560145002778,24.543040982830885
11.78,-0.034207829225438406,-0.06528713576418756,9.86718401022624,1.5266783639143806,1.6990266888526135,24.362494349958524
11.8,-0.1062900018979128,-0.10218192097398854,9.867191011465492,1.513178925440209,1.702103735450209,24.36478543589988
11.82,-0.07074062751053302,-0.057224593158902506,9.80708358270316,1.5099230576125355,1.6999222914638696,24.443848903964177
11.84,-0.0326607082876727,-0.041672293928931986,9.810962602235177,1.5119095834318987,1.714207158771221,24.265709734420145
11.86,-0.12070435870815108,-0.05619183614344646,9.84574259021308,1.5101755987297962,1.6714956936922978,24.11053903226504
11.88,-0.11264465284951233,-0.08153883639923312,9.859399947176655,1.5217982512113288,1.6892239106780407,24.492499862887886
11.9,-0.0924057653818073,-0.08419897683661502,9.82698526060646,1.4979514187534568,1.6801762255795925,24.402751230981025
11.92,-0.09601791749535031,-0.06260364332971273,9.822355649642834,1.5035802438634378,1.7039199132030767,24.319343415463408
11.94,-0.06386550783740119,-0.07195318442445237,9.87447244253499,1.5037073198374047,1.6839946895263471,24.360140779614994
11.96,-0.07930590427632453,-0.06030933108245251,9.856603857760083,1.493668896290559,1.66033379292238,24.440309709416237
11.98,-0.13087763089459392,-0.05741538224160578,9.865736662112878,1.5043384374373057,1.6833402350111986,24.346384244868613
12.0,-0.07476362892941973,-0.04788825121519377,9.828080281015374,1.4939088040714275,1.6800099354976026,24.368903019216354
12.02,-0.10322160293367233,-0.09264136590796918,9.825945041559995,1.4854845736525355,1.6832387260917383,24.520725619570786
12.040000000000001,-0.058044931052337156,-0.06583592397672067,9.862496334527295,1.5031473559531918,1.6667219752006097,24.259001032224706
12.06,-0.10670732860454213,-0.07780376548447726,9.832033928498305,1.5116935650647667,1.675508150547,24.40044866799469
12.08,-0.10803291021659663,-0.07276947259060974,9.823158150324026,1.49501901484763,1.6677744105887247,24.261896803748296
12.1,-0.0796772985382461,-0.053767631937530716,9.815426664706337,1.4917944260532459,1.6619920821445133,24.48530197102441
12.120000000000001,-0.07520847593675156,-0.05184884708846034,9.825300698236857,1.4898537038336706,1.6703366273170615,24.384279418780654
12.14,-0.08414300972874299,-0.043594552857796974,9.859786171241447,1.484189061112521,1.6666184198432425,24.306471048323367
12.16,-0.13853690973686345,-0.06330017558054077,9.799992974448426,1.4992788175973313,1.6737500241553234,24.241957686963232
12.18,-0.08398504882618305,-0.07425735235277765,9.853285931749314,1.486727012122611,1.661656278745289,24.33457420200508
12.200000000000001,-0.12431981953065012,-0.07735609109703212,9.81967868909517,1.462188414165569,1.6655405358243294,24.378026120491093
12.22,-0.09359352707703449,-0.1072315843131825,9.831950703161422,1.4941325449709861,1.6455207687816185,24.456436525837855
12.24,-0.13606903592478375,-0.04597619165136603,9.83337564853076,1.4898296606903003,1.6696125967400877,24.276859214980192
12.26,-0.09030463294503666,-0.0794397033499258,9.831336264430318,1.4844359978356547,1.6459467225224538,24.298964487802447
12.280000000000001,-0.12260127270878404,-0.06311105932861628,9.829499319928926,1.4489752170392807,1.6607785818570302,24.32575708839442
12.3,-0.13546221976177703,-0.05987274726191387,9.825390766195746,1.474589977695225,1.6523905187031216,24.304091288485374
12.32,-0.08649718413932422,-0.09857906603933891,9.822035721604811,1.4816250500480537,1.6491123964659544,24.325527756645503
12.34,-0.09923403257671415,-0.09235615183880606,9.869136911731104,1.4745384690580257,1.6533224848513068,24.291664119103395
12.36,-0.12154299382609135,-0.043161673422589183,9.836589566908025,1.4708293533559302,1.6222694022143438,24.40123486684419
12.38,-0.0708183496636749,-0.06850257783743385,9.832634929632425,1.4757492583927923,1.635864757571744,24.329814363131067
12.4,-0.11900404903729345,-0.08612857678622973,9.81948716703833,1.4661857033953105,1.6469729509262672,24.36989975665555
12.42,-0.10806048914937952,-0.07724572776056299,9.825224286058136,1.474809823506419,1.6566253959667752,24.393965197344873
12.44,-0.10300116940395308,-0.053192312273468656,9.819212549407668,1.4623548529848098,1.635035132910982,24.259854047164875
12.46,-0.12606172070045338,-0.05642535268707417,9.854193936679646,1.4595058565501673,1.6087584026817887,24.41828218308997
12.48,-0.09962283685527518,-0.10462418898274467,9.816038415921474,1.4655381899661541,1.6278005050057291,24.38813390468049
12.5,-0.12555369564923297,-0.04280409851063915,9.778539868139301,1.4505418120086269,1.6281915109823886,24.388801979739615
12.52,-0.12330932752135557,-0.05635033742633897,9.835970902077321,1.4414527659086271,1.6376905295578987,24.361884155659755
12.540000000000001,-0.0797379974219721,-0.07890261771891655,9.827345184249404,1.4503448745592262,1.6248652038731843,24.351567733356706
12.56,-0.1405889948610291,-0.09986365949224452,9.819501574136664,1.4540767390616596,1.6093835734281583,24.378023964226454
12.58,-0.17564859586784395,-0.05512141031160813,9.856751081233982,1.4552775059791776,1.629538359479501,24.38196090876548
12.6,-0.07579475145068118,-0.06684167172692489,9.765439664145324,1.453168813563133,1.6233229572457517,24.280475509907703
12.620000000000001,-0.05305829475508124,-0.10569108578877874,9.87299881239481,1.4409946244443625,1.6083693828354633,24.501499056487354
12.64,-0.12763065787281994,-0.08133782602331736,9.85977429515598,1.4377743452033473,1.6202640238612334,24.320399483821003
12.66,-0.16661131535321044,-0.014330193847610764,9.817520247034084,1.4313597814226935,1.6052888949884287,24.381981966485828
12.68,-0.1266278004165431,-0.07667723992887744,9.821765789662997,1.4375588580472853,1.6054477776154932,24.470446734141202
12.700000000000001,-0.12668040628892774,-0.09199653599651345,9.84545848173896,1.4164145837165656,1.6007931926031553,24.350473264760968
12.72,-0.12491575440850894,-0.09747312496492397,9.84594221614336,1.4308060222002041,1.6006366017903118,24.39735847753812
12.74,-0.14862878221806874,-0.04200349329823018,9.816627378649134,1.456815034668484,1.6104355959057899,24.203686596988753
12.76,-0.10691497818649819,-0.0606287688706124,9.791867218484628,1.411006897674942,1.5811284873985099,24.221025939578908
12.780000000000001,-0.10888465980479492,-0.04956986048071799,9.884940774468392,1.4253290137839807,1.6076326782848072,24.37810841674238
12.8,-0.1599341462924764,-0.07288581297617075,9.85581298697764,1.4252422811842604,1.5959467013966213,24.395897305108797
12.82,-0.1056539888573251,-0.052896195239471644,9.835642254237701,1.4242202984139263,1.5878620230095934,24.46981478197306
12.84,-0.0723598425439202,-0.0950662281883835,9.835925969405823,1.407169722665957,1.589537619384443,24.446001992283563
12.86,-0.11990409945451502,-0.074967414354849,9.846874793715054,1.4196616280972314,1.5777953638007762,24.255130190997743
12.88,-0.1331453836675068,-0.07259374452260599,9.849678353511587,1.4068197307502932,1.5681113824607835,24.484539931535082
12.9,-0.1287544167735473,-0.050797618643214,9.778802134664385,1.3955377501805337,1.573153025679203,24.28841797952465
12.92,-0.11029786608983244,-0.0721775950709561,9.821998662601757,1.4169720266287562,1.5605271416804865,24.453270129621057
12.94,-0.16940382676096657,-0.09116874014891589,9.819208507274677,1.411727879239478,1.5634662164915643,24.348695185835442
12.96,-0.12246776173413103,-0.07747722372518834,9.826351820793583,1.3930361228557295,1.5582654443663748,24.602680419917604
12.98,-0.13676230424799665,-0.11238330058163845,9.849465607272753,1.3948748586267536,1.5842215323452222,24.338773032286905
13.0,-0.08121088548481298,-0.12536688334566426,9.785251468943189,1.3921151971092547,1.5566220230477068,24.380662833096117
13.02,-0.13214921251820727,-0.06240928501378919,9.79608227656519,1.3790736979809024,1.566523213805765,24.399833789554485
13.040000000000001,-0.08646861770498929,-0.08661572112408322,9.8125742231529,1.4007201343171158,1.575565685995756,24.368352571416803
13.06,-0.1561127254763245,-0.08443004345406734,9.833283144031624,1.3986737183341964,1.5703532966952252,24.308564489144974
13.08,-0.11417357436626106,-0.062659737096306,9.85003398035918,1.3849198767900046,1.5563469325702997,24.56525024926103
13.1,-0.12118830055002242,-0.051411551552921445,9.869819910438892,1.3855292328443995,1.5538305607031775,24.34065299457682
13.120000000000001,-0.15120011614036638,-0.06873120050711039,9.82168361906785,1.3845153997312523,1.5559683577649353,24.33837068492849
13.14,-0.1253220035987329,-0.04092481173802465,9.849409813539923,1.3833640240907468,1.5727125067534962,24.381922220977025
13.16,-0.09970922376884293,-0.06949389958870923,9.846206840543736,1.364990591927858,1.5531372702654187,24.406718007255296
13.18,-0.1383645686636392,-0.07356092910521371,9.841799169645101,1.3808905408170795,1.553099123000785,24.337053070931574
13.200000000000001,-0.17279869669226536,-0.07485103739488765,9.827454757592868,1.3617860056357367,1.5664849230402675,24.468704946268076
13.22,-0.13115081193277534,-0.10541843728987793,9.817877504238936,1.377884926767252,1.5439975088869875,24.40522777145583
13.24,-0.15346667267805475,-0.06063436043480115,9.801034525893712,1.357947923072748,1.5500907380586952,24.39520101958095
13.26,-0.13964120633902136,-0.12870555150196997,9.799183082274878,1.3531169822567188,1.54077727205685,24.43882488419872
13.280000000000001,-0.13328119197328847,-0.09155927680188233,9.835953036062945,1.3633551652147127,1.5380147884515352,24.326872747492107
13.3,-0.1740238425240578,-0.07940968933892736,9.825718209517994,1.3606444571595677,1.5211286938932393,24.348541489323292
13.32,-0.17189726024372876,-0.09569370598191883,9.816493568359485,1.3596977534279608,1.5168454648654917,24.394163953228716
13.34,-0.11955962493601408,-0.08895982612995011,9.843303651208497,1.3472408677825476,1.5203851112296514,24.47090500973031
13.36,-0.14476699436995125,-0.043159528204107046,9.821473094824073,1.3557018423449545,1.5316956605592444,24.37758433398742
13.38,-0.1958876148505245,-0.05788497628423513,9.803457442806192,1.3541468652412452,1.528586100110734,24.372310147652804
13.4,-0.11220014751181866,-0.0936965037959743,9.81942578027372,1.3603355491215015,1.5309358840214942,24.229588841857645
13.42,-0.1250465274968523,-0.08938185757770169,9.846405004732333,1.3480287360922067,1.5148533742450978,24.343363469530864
13.44,-0.1497194672659679,-0.10553726398786986,9.800102173514283,1.3376833458147768,1.5177003817455779,24.267384418780306
13.46,-0.16479250452077826,-0.06590004710922931,9.83072239475239,1.3277047095636534,1.5150999857292546,24.287893870718683
13.48,-0.11095806011477101,-0.08499358966986861,9.82390502694781,1.3233703321849442,1.5059610242746682,24.429856062786147
13.5,-0.1230833877839521,-0.1193229679895711,9.806070349790092,1.3394002167617798,1.5011757788059976,24.666685943150505
13.52,-0.07219841493618603,-0.07796894497321535,9.817556452717275,1.3416001412996923,1.486895877350876,24.417299224860724
13.540000000000001,-0.12118753723092701,-0.0711920981448963,9.785397579828974,1.3222642260832382,1.4975751757453102,24.4289639493298
13.56,-0.12191095753362202,-0.06069199676483397,9.827229798432416,1.3312182423084893,1.4954154562070001,24.342086097152794
13.58,-0.13567056739473926,-0.08140113476127517,9.79016935194165,1.3244238294527295,1.5051549038393124,24.31963740273212
13.6,-0.11095440369091772,-0.08736276801496078,9.85089723787101,1.3308506710678938,1.5034974967906898,24.568583636968075
13.620000000000001,-0.11560575205283864,-0.04015544149703135,9.821585379296344,1.329832648261019,1.489982586963557,24.34024543379329
13.64,-0.09978154477912313,-0.07971648819238217,9.809387485964157,1.2960158735647689,1.506518836300386,24.245267381248894
13.66,-0.14393229614470301,-0.06542053834358769,9.85249470672127,1.3265080376310925,1.4851464474844702,24.425485155411128
13.68,-0.14159179090038476,-0.09056222074323991,9.797482160756097,1.3162202519650439,1.49093972196692,24.372041981496245
13.700000000000001,-0.1424744577393123,-0.06592897895916142,9.804383733327377,1.3058995452756397,1.4769764312349065,24.45467407350069
13.72,-0.11050007242714631,-0.10879158934064784,9.777141832877136,1.3036968592818408,1.463945374230382,24.53299808970001
13.74,-0.09256702646352011,-0.08886829365210362,9.855407623411535,1.306571231522965,1.468467796713999,24.43769051796658
13.76,-0.14123678256221342,-0.10373645906715498,9.86928835109547,1.2987427526933684,1.484837345617379,24.426906567661703
13.780000000000001,-0.14010768594766432,-0.09161057329510731,9.780423382190842,1.2919412251844389,1.4648357393875453,24.46210497934595
13.8,-0.12134225670919159,-0.05443794260385341,9.801665227272142,1.2917691668219289,1.4601981178338872,24.62629428646854
13.82,-0.1350274269214475,-0.09162620484137471,9.823600971737234,1.285986587987618,1.4622125320893844,24.5927806464205
13.84,-0.10475469653197496,-0.0649430186038618,9.808759163553244,1.3074004581960583,1.455753397482014,24.385805628224475
13.86,-0.18450665686714654,-0.048887405447199085,9.82066432107136,1.2920462082900988,1.468986555764697,24.487648894201296
13.88,-0.14851967099199911,-0.07970494094851045,9.818302725000402,1.3115741139142623,1.4733098590783935,24.555133819893694
13.9,-0.14703600521319893,-0.059194859662920735,9.831226749045374,1.2903214204443303,1.4519270875358452,24.46830350234554
13.92,-0.18509188255513914,-0.06836141526480928,9.796808899480627,1.2900714764474952,1.4546911287671407,24.40810457841148
13.94,-0.1507652667169303,-0.07656345832166482,9.825444421279654,1.2711451523843937,1.4564308888269988,24.37416641366983
13.96,-0.1491285776064141,-0.06379108195088481,9.792519450168479,1.2771653093527175,1.445230240732509,24.422464823524283
13.98,-0.13083681676830647,-0.04189996768474717,9.809920709703059,1.2776681944041137,1.4328056368641962,24.32397106737213
14.0,-0.09752884932357911,-0.09134158726011767,9.77659271604834,1.2681706708006963,1.4349380266108567,24.487365417304762
14.02,-0.13100769658819578,-0.09767385534031475,9.809691959479455,1.2675053181083509,1.4406083904784737,24.527594369016136
14.040000000000001,-0.15016421448386977,-0.09873791059042174,9.805281216751037,1.2739735730077668,1.4378903191201071,24.385146522033843
14.06,-0.12531505664143575,-0.05837700203742363,9.842982962962507,1.2717973515811456,1.4135029889017094,24.38144090163034
14.08,-0.09714393063762086,-0.055560315727576984,9.817705634255626,1.2516671474493808,1.424540291839333,24.33357507214186
14.1,-0.1472392049783335,-0.08876668439470674,9.822043211849946,1.2655203361578173,1.4190273170711258,24.456002315651336
14.120000000000001,-0.14505658724638143,-0.12062067099896998,9.818212666850556,1.26586917637426,1.4327207549535521,24.418358674937085
14.14,-0.10776562363651004,-0.0912661719867858,9.765339428220916,1.2521024115969048,1.4144257430784635,24.304338811433748
14.16,-0.1266901724716959,-0.06668078004506364,9.768436523470553,1.2487625404378435,1.414317167330746,24.653584701984624
14.18,-0.10437250419237215,-0.07883534855395725,9.810186122310753,1.2577834935720664,1.411498663450761,24.27870895263666
14.200000000000001,-0.1202942162999493,-0.07375315548439396,9.82490980220022,1.2253359571821605,1.4219145973084075,24.30637097379747
14.22,-0.1017905995336821,-0.08768243280028182,9.811866771864725,1.248796885593508,1.4212424755486897,24.497297188091423
14.24,-0.1445741557774093,-0.05678541240961539,9.795929389991041,1.262840985621754,1.4140538581327005,24.475284665652904
14.26,-0.1183503508407732,-0.07005123306062831,9.811315366217633,1.2182655056894622,1.4177579319311615,24.366153608987855
14.280000000000001,-0.12265269021361823,-0.06502990501735906,9.808938256507105,1.2502022344034287,1.4166356119311967,24.361581075879972
14.3,-0.14710624872257566,-0.07341820498882497,9.836382551221334,1.2451743568720315,1.3837781842666224,24.46109091636476
14.32,-0.15510595003397584,-0.06594874620077769,9.834774922839387,1.2231182925518453,1.4054126594026333,24.455290900271336
14.34,-0.09817195318861024,-0.06709752117894068,9.802655895217466,1.2404861386034338,1.3934205730542986,24.369309734585087
14.36,-0.12337298300042307,-0.0946595558113088,9.815034872672511,1.243090434695144,1.382189099286734,24.505712033092518
14.38,-0.1394266586550459,-0.0684621808572506,9.82297957095215,1.2191183385611797,1.389210539054517,24.47253249982908
14.4,-0.11553175664707377,-0.05991493860847831,9.826482201306366,1.2216340804344157,1.3973813329112421,24.534283070182234
14.42,-0.0841717689477705,-0.052460220511322375,9.856972442835419,1.2268029926831978,1.4023038428209482,24.423959409764187
14.44,-0.16862314375108867,-0.06705515208303248,9.81474509912944,1.2341682479744946,1.3719930755671885,24.493341281394017
14.46,-0.14824079909660443,-0.09449285716444925,9.84445861324895,1.2168442538946695,1.389335250328984,24.410844787049236
14.48,-0.13310498339762394,-0.09122106093296152,9.786029027000163,1.219712924317533,1.4005289651058181,24.472973643375337
14.5,-0.07269937904084524,-0.08350086879220545,9.798880280376409,1.2113780222974668,1.3969166073299197,24.458893423818765
14.52,-0.1013484262197545,-0.07080815674759626,9.761217452551637,1.2161806283173853,1.3418274709155327,24.4986959522585
14.540000000000001,-0.08840282770043928,-0.07683802942027362,9.818186582089599,1.2243251149216374,1.3959160696106108,24.47298838887509
14.56,-0.13525103575907801,-0.0966601759333576,9.83038279538825,1.2128559923220537,1.3815199592282101,24.280901272995557
14.58,-0.13388545036180502,-0.09656852745730476,9.750100772706205,1.206176751576005,1.3466337652904623,24.38246682179287
14.6,-0.09384073049915179,-0.115729529701991,9.818483193270362,1.2073939388001662,1.359865021321632,24.439823411379297
14.620000000000001,-0.10270740901519503,-0.13592994593321306,9.82867185978297,1.1977014656219809,1.377929529642934,24.471059531849594
14.64,-0.08956336136742178,-0.07595383369973577,9.827038045117467,1.193766275877405,1.3668014426170711,24.500318856797893
14.66,-0.10708074059550338,-0.02668774694556949,9.78325102209572,1.2137633150970901,1.3553223870629785,24.478805028324615
14.68,-0.09453227679919463,-0.03692733966964394,9.832265938788774,1.2161418309992953,1.3596068007342608,24.379114764692616
14.700000000000001,-0.09661976978110991,-0.09219456381597929,9.812960889435809,1.179902078239154,1.3622986731622677,24.509519452099635
14.72,-0.08020561646119975,-0.06939531620144397,9.827294506887055,1.201707992346455,1.3489613925715496,24.371926495218805
14.74,-0.07854203214732168,-0.1014448716647552,9.80916236412849,1.2025627729214416,1.3514149955380377,24.538290371184203
14.76,-0.1382720689711774,-0.09815183589905492,9.8216249498342,1.1799607463457669,1.359605115033458,24.544207419683115
14.780000000000001,-0.15300581476398184,-0.09561193749440977,9.839620077890402,1.1854818034909176,1.3415954081960346,24.43758141270073
14.8,-0.07082031122604728,-0.07592178804309543,9.806578765443254,1.1825684225080686,1.3330194418838828,24.387126963516806
14.82,-0.06520189098009863,-0.07480683620633984,9.818572041301557,1.2055058266983432,1.33822018185839,24.38386515508771
14.84,-0.11943310777301495,-0.06584594752348596,9.842503716823336,1.2011964459164013,1.3337265972677466,24.352608923498913
14.86,-0.1394275898119543,-0.05737452799788619,9.807718801466912,1.173654033567877,1.334608079520452,24.36689832677804
14.88,-0.08946188298088611,-0.07711188182242351,9.782704689082813,1.1664856102384107,1.3214419807194948,24.42685117193828
14.9,-0.06766494280512649,-0.06938218317899265,9.827530694142862,1.1870387365031412,1.3391515477231324,24.397113231311373
14.92,-0.044986497522278984,-0.09171099677289431,9.84629156801849,1.1829980534182685,1.343569239817355,24.31365391674922
14.94,-0.07600192303370064,-0.09644978928246607,9.842429219885764,1.1882670059670795,1.324893118095559,24.404340167864277
14.96,-0.09717804497624676,-0.09926098945784761,9.827874326837712,1.1635238406686208,1.3246273023830595,24.451036304944267
14.98,-0.10918214695781896,-0.05601488547215362,9.75118569369784,1.17965667165349,1.3274293145988136,24.417055363181287
15.0,-0.0855295680482378,-0.07547291643589223,9.793683819456735,1.1634296364862227,1.3183660424787904,24.37317015508341
15.02,-0.09225287958715568,-0.10584871570055907,9.794754637186863,1.1753242512673165,1.3355127099459383,24.25404747967527
15.040000000000001,-0.1090970428573648,-0.06939628759216598,9.810281382040094,1.167086354639594,1.3150040712941498,24.537556790562103
15.06,-0.03144443872326543,-0.09281579469135245,9.851156330794824,1.1848483230526012,1.3168676314032386,24.443331557429026
15.08,-0.03697123735271405,-0.034333327077847114,9.781726225311386,1.168720453209364,1.3127501613395196,24.47273571294659
15.1,-0.05213071246973916,-0.07881556379996324,9.864584896812225,1.1595308348640787,1.3287342225322487,24.462124236400705
15.120000000000001,-0.1024792695139507,-0.053303940858878754,9.798761749895963,1.162494368145328,1.3146457882394613,24.488026921039836
15.14,-0.057003438387754915,-0.04484645147902014,9.788937550157542,1.1585742011950428,1.3352054263607855,24.46806298048557
15.16,-0.0613042400623649,-0.08541266788276072,9.829030368156818,1.1465195664433194,1.317150476746419,24.45728373756719
15.18,-0.06514254119313713,-0.06447829390785138,9.830798061413802,1.1758176799509363,1.3235564852539703,24.51103731230293
15.200000000000001,-0.04387137093599277,-0.05461178170913683,9.823729372653286,1.1710811563606864,1.3071097393989706,24.52878279907594
15.22,-0.058131321549564824,-0.06304890140394648,9.788034602782426,1.1518765803592905,1.2993275888728733,24.561794542589862
15.24,-0.05441385650745663,-0.05781329216286073,9.819612030360611,1.1592046117147377,1.3068446524352806,24.385156235812236
15.26,-0.055886421161238584,-0.09130019100010099,9.781012773122288,1.1713068945070695,1.298829513897851,24.47224231479297
15.280000000000001,-0.06218065177749726,-0.0532960038548818,9.786711015208606,1.1617690374135439,1.2840996491626346,24.324435933640984
15.3,-0.1141788067839026,-0.07376598280607737,9.80406091202599,1.1449543741918025,1.3127065135111458,24.414931896163818
15.32,-0.06638306644709821,-0.056716507050957855,9.785724143379232,1.145797730871848,1.3014065728483852,24.438264476161624
15.34,-0.08126067138673136,-0.04496546564133101,9.832332573443951,1.1281718293084553,1.2926054675673215,24.513873799304136
15.36,-0.09823163091438655,-0.04964567855350768,9.79135038313475,1.1517856693244362,1.301922142745983,24.445755778668147
15.38,-0.02306762327639212,-0.0557009722876196,9.80008394416822,1.1551781325477601,1.2972013305964338,24.509581995982177
15.4,-0.02076352627394152,-0.049483247886821916,9.783381248474072,1.153979464500946,1.3094241865834926,24.42872763570264
15.42,-0.028881447373587554,-0.04820498579343334,9.831117388079354,1.1472465578888904,1.2982704686477082,24.410697176395324
15.44,-0.05535360361128523,-0.031707540029490375,9.788314990788038,1.1425344351607218,1.2910109200629438,24.393319569755835
15.46,-0.02683895442040165,-0.06193991438411323,9.833309553829801,1.1278287488134415,1.2981740355245615,24.51332729468826
15.48,-0.05917280591833934,-0.05761809598983643,9.831264069453871,1.1398209798118124,1.2895616186989953,24.42837571705228
15.5,-0.05327290897114928,-0.04189125119061583,9.793193255738213,1.129145405909262,1.2904629880269447,24.265105660293276
15.52,-0.08454772600628375,-0.06997272499219259,9.804874874219259,1.1395731028149088,1.2996116470943821,24.51066206877198
15.540000000000001,-0.04615389827150983,-0.08649975960563719,9.792081957589996,1.1255630787670226,1.2744115166614944,24.386038859998006
15.56,-0.053436652925994275,-0.04955631410144368,9.817359342045533,1.137291486059733,1.2762337142638656,24.476413255709485
15.58,-0.08638034812774077,-0.06316498711336664,9.798646230385241,1.1442572966626843,1.2794640615031063,24.371206621505223
15.6,-0.05396208342431747,-0.08281576431433987,9.792862832096981,1.1337414616131525,1.2797404892865334,24.4632915838373
15.620000000000001,-0.05354411381394106,-0.04827220556681061,9.80424628148563,1.1322195500646597,1.2928712901499073,24.23305761955966
15.64,-0.005481415353173064,-0.029275356071075058,9.76332848389024,1.137051369035614,1.2660159948524137,24.460572999466216
15.66,-0.02693577355066966,-0.09010500252347667,9.800779872960225,1.1446316837772847,1.278747039204403,24.39383170472204
15.68,-0.04787696683599453,-0.036672968933478746,9.818708708629577,1.1248838084350459,1.2724352527900156,24.363003663102866
15.700000000000001,-0.04081699087163568,-0.10746733755029098,9.805712232035425,1.1302162274973038,1.29387078236112,24.52613419762494
15.72,-0.044806750205304946,-0.06433545867455201,9.825844886342828,1.1391887027901308,1.2846492627297297,24.45608288691305
15.74,-0.04986235052873706,-0.019120386516307666,9.792413759850545,1.1298606081190024,1.2771644180339363,24.446625164022112
15.76,-0.07072991671495432,-0.06209542382831156,9.79015682791887,1.102256218927687,1.2834544753690103,24.40878648268976
15.780000000000001,-0.04632780301359707,-0.05332569213143977,9.773499151793722,1.1142569601240373,1.2595820107851712,24.538873483259824
15.8,-0.06008900334824061,-0.03945995213468095,9.791081686607566,1.1280775495074071,1.2920835831544204,24.43310604149278
15.82,-0.07158248526641278,-0.08863688139807424,9.85016596190887,1.1157401567434266,1.2624438483030485,24.587480974839853
15.84,-0.026435346977521666,-0.052452989014496486,9.807700725933744,1.1333408949529504,1.2825074036980881,24.567404039471516
15.860000000000001,-0.028329052958922178,-0.05219545666791269,9.78596739400203,1.1367326969462106,1.274551545472023,24.583639370491298
15.88,-0.0816768509577367,-0.01581551122252451,9.775246074251667,1.111487686578527,1.2707969663515062,24.547633077303313
15.9,-0.03897872356232257,-0.07735635986382933,9.760230347215959,1.1063222903098568,1.279446134921474,24.422267282895383
15.92,-0.009925701354384184,-0.059849362704162516,9.779227941766061,1.1123130896522464,1.2764212973769329,24.47554126074664
15.94,-0.007248687030628451,-0.07036016662312536,9.818761960971129,1.1110336696228404,1.2667122302706062,24.45567646274782
15.96,-0.006999051216272714,-0.07205322346284691,9.788900851426112,1.1299018979026927,1.2606266178649268,24.53955165269829
15.98,-0.030592711260023466,-0.02838635255598929,9.775417058420796,1.1035259941689117,1.2652982700625601,24.472226977393355
16.0,-0.051617350077360055,-0.04996830098976938,9.777961651379774,1.1206620162949603,1.2622863827645145,24.45419155148961
16.02,-0.05651469707337656,-0.06117712433570501,9.815198350942541,1.1264944197974212,1.2661218299635144,24.606869602154877
16.04,-0.01974367388765244,-0.05998469459419155,9.79672503374475,1.1202064144101245,1.2720761846739834,24.4486097241347
16.06,-0.01781915163975846,-0.060451882523292616,9.78287197829238,1.1157966650362827,1.265865146024685,24.425424644106073
16.080000000000002,0.005933759469212256,-0.05822055877571575,9.790638059367971,1.109247519751334,1.2623580253042062,24.443800012288857
16.1,0.002295374693021747,-0.07358816788601119,9.853290732249787,1.1288164146082522,1.2533201105698375,24.562230553240603
16.12,-0.027470884832966825,-0.05302625097006872,9.82843032561614,1.107350481705975,1.2624772679112588,24.49213061290981
16.14,-0.05423804059112021,-0.05458584834857497,9.83445168939516,1.1187815165214032,1.241662641163922,24.514360135151048
16.16,-0.030085175331488724,-0.0621053803658393,9.753729981240738,1.1072260689348896,1.2500583944896164,24.497139373434948
16.18,-0.01565845561088449,-0.043393952320441465,9.793551766588592,1.0899301135371873,1.2635274883787928,24.303403624265638
16.2,-0.025130365097533972,-0.04124024081325426,9.781006563219183,1.105203275615122,1.2657684988079234,24.39390641866501
16.22,-0.03352222204484132,-0.05671187181624905,9.81051948984914,1.1059081126845365,1.25618138511737,24.457685509124605
16.240000000000002,-0.011757083069074449,-0.048000274302208046,9.823216081839321,1.1056267885060957,1.257889005257402,24.50574238532674
16.26,-0.02969043990849353,-0.0014815697523881191,9.804679224368549,1.1000658157526457,1.25909233655376,24.402393721320625
16.28,-0.03181360857975402,-0.001779644082649058,9.774504714958683,1.1125530269592285,1.2617341043945942,24.400502420416203
16.3,-0.007354469482554164,-0.06480221280326097,9.779589270932046,1.1133106941697875,1.2524549148061253,24.457305285685344
16.32,-0.024228017154640465,-0.06153931778711855,9.811427259330122,1.1025439899680354,1.244207747362879,24.58896705309397
16.34,-0.0071217865330907605,-0.06396627019056579,9.813713448796394,1.1021401382482259,1.2574963645866957,24.311210593320077
16.36,-0.0054494715028666745,-0.021162867923190862,9.799034312613113,1.0944730867698478,1.2728136996755408,24.27189111163939
16.38,-0.039829654082097224,-0.04979820190113414,9.798554415717282,1.1072386533923535,1.243630733620232,24.62341807692176
16.4,-0.022448692247287898,-0.03655575067986837,9.796362104694644,1.1182064886081073,1.2512291585100677,24.362734945964014
16.42,0.026443451227168693,-0.0009294824240819732,9.801636116488122,1.1179627500409275,1.2482970946891139,24.45331490690512
16.44,-0.03764603406089541,-0.040595715949365944,9.812607654377844,1.0979512027750509,1.2759708669104455,24.366254930395375
16.46,-0.06061343799722444,-0.02577705767496492,9.81026296987294,1.123637366211754,1.2419288246344649,24.462685371206806
16.48,-0.053356381240896256,-0.029007273979468444,9.794898933496476,1.09990293276773,1.2496463780994704,24.47657558850168
16.5,-0.005206010839345562,-0.05069176149388736,9.792883809457155,1.0931806925143333,1.2473364656239645,24.61689386420092
16.52,-0.00429485021964175,-0.01725399788410345,9.79172861470294,1.0895531108378,1.23818952522335,24.54626932506866
16.54,-0.007152773639142462,-0.054939183343213745,9.774204117672298,1.0922562160935656,1.237413161155046,24.3865401661389
16.56,0.026986646435541974,-0.010653646768997244,9.773688278704734,1.1062193375456362,1.2559672360816712,24.337127055515868
16.580000000000002,-0.06935561129003633,-0.04870450203534479,9.806914778781763,1.100185556170855,1.2571702665944835,24.530313738313072
16.6,0.008185716274289401,-0.04601726656390627,9.775296333533067,1.0963336726324266,1.2443055458340015,24.449344976083083
16.62,0.03813404299308004,-0.05772831161734135,9.813268883969062,1.0940883306952602,1.263823581393858,24.43364020827723
16.64,-0.0282972839223957,-0.0539426243907522,9.79143975235493,1.091624389460706,1.2270745993839665,24.586845568126513
16.66,-0.008810519081114186,-0.0434898662433256,9.81301628921147,1.0935246850649554,1.236862943423454,24.352121936078866
16.68,-0.017362149377736922,-0.08307698180988654,9.808253773692947,1.1125294156359198,1.2410809940486647,24.463906570647186
16.7,-0.020135063817505933,-0.038610400286476484,9.813206759278668,1.1203750138314656,1.2491345726567566,24.544248049377313
16.72,-0.005181749865595463,-0.043595317781957105,9.780028389966509,1.1209732492280755,1.2446260802782685,24.39993571282844
16.740000000000002,0.039400762241539336,-0.017126052289923407,9.801964361482156,1.1091861028613816,1.247050633252714,24.59878263464543
16.76,0.05037458935937051,-0.023955487339205953,9.80999373837286,1.097399407610036,1.2538522854825425,24.41457569880709
16.78,-0.003244955247533002,-0.04605509023899338,9.752568360081717,1.0956640699309559,1.2635274760029978,24.49044896205251
16.8,0.053480795081606886,-0.040559033107834444,9.833699181646548,1.109936494729528,1.2569503297556068,24.44119155729928
16.82,0.007431481054737741,-0.035564516985445285,9.847611321894556,1.099957010367262,1.2494707402241745,24.27802131014928
16.84,0.05105899562096156,-0.0006356506917438338,9.81445068920911,1.1065976047602932,1.2481046668287876,24.464157012735892
16.86,0.0055456351334324475,-0.04628201357838927,9.810721826248358,1.1218527610347824,1.2599305159621705,24.561759568867547
16.88,0.011802521048839292,-0.043710809502164355,9.805100440139936,1.104798445130885,1.2677822537727097,24.416188493006427
16.9,0.01829736869840392,-0.05136551901103674,9.782102655739887,1.125502027033396,1.2553592702815826,24.44926851049977
16.92,0.08925260555693294,-0.05791145445075793,9.787241597553486,1.0915594287142194,1.2441244007796692,24.45878212665801
16.94,0.03167035549471103,-0.021606036015943225,9.813913691644993,1.1074181101673668,1.2516792415400033,24.54355740279218
16.96,-0.006700375122474681,-0.023162125939643393,9.765281212079616,1.1062077366210563,1.2549637389304535,24.4724659057979
16.98,0.035785152891544034,-0.001037705793065835,9.762902151463452,1.093366548990443,1.2436946909235407,24.50367254524677
17.0,0.0030791862624692714,-0.005336205035040727,9.779295639942875,1.1113711389671956,1.2580008317596822,24.505291259301014
17.02,0.00043174677112057906,0.022307788810889698,9.805444360805785,1.118819861075654,1.2520921733415191,24.46109139748002
17.04,0.035926630682045144,-0.026580905033136107,9.767199159017084,1.1257053148252825,1.2612178682097135,24.63870879652498
17.06,0.014510314053427268,-0.029781715096794406,9.783022065969986,1.1079677686047704,1.2399341802325519,24.422088476960734
17.080000000000002,0.021204523956845717,-0.05004212088194243,9.785800858692319,1.0850391709242417,1.2324276360682782,24.560922637084353
17.1,0.015081977266097196,-0.009571322950858375,9.762981678806812,1.109004337405957,1.2460659085803398,24.607322532691807
17.12,0.02362431235455005,-0.02059634215584157,9.72709525600037,1.111856781853781,1.2503917888258493,24.49476711856398
17.14,0.02629633703848172,-0.009404716189211192,9.762238071083347,1.1022963297537098,1.232316017097622,24.51127159159585
17.16,-0.032304556095392074,-0.04467444291126506,9.794234867978362,1.1070183538478229,1.2444204520476565,24.549406210653878
17.18,0.033216241210916334,-0.014320718281447615,9.799678505376317,1.1002595452891608,1.26352965590423,24.477849224642195
17.2,-0.007581463422969462,-0.016708606955358675,9.7996966033497,1.1039908826722005,1.2562247866303482,24.356434891577283
17.22,-0.018686654564820958,-0.017490675955817526,9.802389848473434,1.115743826650075,1.2524805695544046,24.4887452873888
17.240000000000002,0.016296965762045926,-0.03339447906335038,9.771304079002014,1.1197071035481656,1.2407549875653134,24.640931890664802
17.26,0.020227736622197994,0.004600514650615901,9.765762542659166,1.0933641795371007,1.264038091087425,24.555348001679285
17.28,0.0011459873867699331,0.022364295947294912,9.795968449813035,1.1012186412892573,1.247591856210124,24.516583842852892
17.3,0.039599260106173984,-0.040303700022834815,9.781112889760275,1.0907138094773647,1.2529526026043172,24.57148484394238
17.32,-0.014406770907920696,-0.0031420170291060635,9.808898665090517,1.1252536769269368,1.2563210264263347,24.500005835775553
17.34,0.009282415079398813,-0.07456111678143285,9.795571516094574,1.1158555966953978,1.254210568221742,24.51448778643607
17.36,0.005126748798801022,-0.0030842987004640783,9.817948591219803,1.0874201172277522,1.2676732822061454,24.47820417125298
17.38,0.018860646820004448,-0.05331116759134238,9.77403099565478,1.1070718301127909,1.258770175722143,24.551474599885733
17.400000000000002,0.027257738694276525,-0.025858220296381497,9.812174514820653,1.1051739834689303,1.2566717831719731,24.470955423158674
17.42,-0.0046663656445785975,-0.04106941206965001,9.836170243724977,1.1007446433080696,1.2526988651762667,24.489195770085974
17.44,0.038866825369181374,-0.018570468595661704,9.786464533713602,1.1189660178221965,1.258162192816788,24.5853079755353
17.46,0.022547545482829515,0.0030690140594173115,9.797421698839274,1.1190397686942752,1.2520280019156784,24.50001749263777
17.48,-0.026129557630813628,-0.05030107476035222,9.761494329015463,1.1119062052785238,1.256311137987694,24.561354389473593
17.5,-0.027615229810146816,-0.019791708270964218,9.80692789897356,1.1031037758233286,1.251293826767769,24.568541037583643
17.52,0.021205840340516237,-0.02231617735072424,9.812622338128316,1.1034989413361587,1.25001418757511,24.511140930161243
17.54,0.016137682463858813,0.020126074598168703,9.771854404008195,1.1105840084542256,1.246149095810101,24.48988794160971
17.56,0.01920815233472465,-0.0023052127793738164,9.798690027440175,1.1058885816873252,1.25290224156289,24.412840194960758
17.580000000000002,0.02120960471841737,-0.03392977297993367,9.790868619191475,1.110718506638081,1.2525536658266059,24.43128102733032
17.6,0.02764737187664789,-0.019255807189131995,9.793447656699668,1.1166755658788297,1.2745255042790329,24.568292050736773
17.62,0.04578250574054698,0.02184815792922186,9.803800206003283,1.0960784477336976,1.2664652876861682,24.567384409031824
17.64,-0.0056198030816403816,0.0055698266875864825,9.796294355714902,1.1041514963191423,1.2555185087616156,24.441517941999425
17.66,-0.0070912641515975885,-0.02652527455064907,9.779669798442916,1.1117163311391647,1.2529419135226274,24.55299037262035
17.68,-0.00509122087257113,-0.012944741856822099,9.803800002820738,1.1280266314214074,1.2636432548159087,24.539156423402865
17.7,0.029482280674992332,-0.011747867282240886,9.81058757286179,1.1211461250369832,1.2772342683802076,24.597260961269605
17.72,0.053384173696957624,-0.01724733084498998,9.76876036642491,1.1129759270393895,1.266096628561037,24.696230337082326
17.740000000000002,0.011461767073363778,-0.04013362552047875,9.782394788817662,1.1173528881619326,1.2412505053977196,24.569548180921526
17.76,-0.04032883550989101,-0.018923216255464607,9.738047472743515,1.1126315377628948,1.2674028519312586,24.4688694504252
17.78,-0.020434100985717144,0.022972067783262797,9.796680259190865,1.1247340168155748,1.2694944007694982,24.584175071917457
17.8,0.0012755270203553964,-0.011875708678612065,9.81249425486398,1.1186126265352285,1.2814031052084165,24.44191960666764
17.82,0.008077627491058722,-0.005758583762673724,9.775310437620398,1.1273742130889066,1.257245964807522,24.70355684362269
17.84,0.011714237659367441,-0.00032350945114320443,9.784905723559707,1.1013414259174898,1.2614327147403117,24.4283049788197
17.86,0.022775306588898,0.04178844783773844,9.775892429054093,1.1071386831910546,1.2648655977066003,24.562068196765445
17.88,0.013887692802022109,-0.0018371161523465488,9.77162792419514,1.1182489393996742,1.2530378426737754,24.5277069187448
17.900000000000002,0.04776919058293244,0.02042416268236725,9.78685812691198,1.1207375254122742,1.2524442353174912,24.49503341455662
17.92,0.00447342634146353,-0.01285840935676024,9.76127680682333,1.1401012247190598,1.2652935551969517,24.490569965041036
17.94,-0.0003620857748961731,-0.005522808806908638,9.774830486071561,1.098311729664355,1.2461769969417844,24.6382123251763
17.96,0.03297364102564979,0.00047622959051364514,9.757928692095959,1.1163454191404487,1.2487413629290869,24.575154990828743
17.98,-0.01759948175208819,-0.014697496017049155,9.795099955390954,1.116179238879063,1.2703693712661224,24.518220892714798
18.0,0.030307654499969944,-0.0027292435733111764,9.786185091816305,1.1196141360460532,1.2674883736774925,24.669555295280812
18.02,0.022887007507922795,0.01966601406360205,9.769254814538108,1.1348403449353375,1.2753008496153655,24.52205494113175
18.04,0.016379009005518048,-0.013542505910303197,9.780794883344782,1.1265368760112555,1.2677249819030256,24.59090957106725
18.06,0.05949800103970326,0.0030262351210179456,9.77418246707051,1.1019944459945545,1.263481545157699,24.425457275118152
18.080000000000002,0.003946132935192859,0.01775864652740924,9.808131195970587,1.1336264382952281,1.2765478288642984,24.430301103595916
18.1,0.07070325080687143,-0.01234600010350116,9.768342264486721,1.1335952123114683,1.2597030908120102,24.59060935012836
18.12,0.013238811056957796,0.02661073908162223,9.795077992525368,1.1214082493313668,1.260867610729825,24.559043760713624
18.14,-0.013387620012944107,0.006719044760361665,9.76140652555437,1.1028336572526114,1.2638192416118637,24.706707341877316
18.16,0.019933440651482816,0.0025175780298310173,9.799228053185757,1.1177215131425684,1.2692264427240458,24.47911265930525
18.18,-0.009088476277407328,-0.03378455786917693,9.804640667761,1.124143667204586,1.2643065623155365,24.590165282654503
18.2,-0.0013594176056145948,-0.0005357941834694367,9.805657171650003,1.1296325789189599,1.2503666403522637,24.51701838781538
18.22,0.026961841124525623,0.01492601950478845,9.815156978061788,1.1021649768145303,1.2627885655857973,24.605105112165962
18.240000000000002,0.030511882206737527,0.04295842087012578,9.785530279982014,1.1123722088634431,1.2653690253531356,24.5993205311513
18.26,0.0006393395582558158,0.019966258365609345,9.809005982331618,1.1312283427288206,1.2670553574650048,24.536183496974697
18.28,0.04043483604970022,0.03168933289467825,9.818500536876185,1.1354415911114732,1.2616278621457966,24.479711791073612
18.3,0.044228645777174766,-0.014460999321164182,9.749684018562256,1.1248955288194806,1.2713846044726647,24.512386825961542
18.32,0.05072490811035572,0.007740249798808366,9.762494232854465,1.1322319597859767,1.2504213413256484,24.45107044914582
18.34,0.027564381775820587,0.03524673256280791,9.740023099372666,1.1254462214071255,1.2708736392904647,24.569845133148693
18.36,0.04791182202057092,-0.006368294043619495,9.803785225728431,1.1306605361493296,1.2848250923212627,24.31652012998218
18.38,-0.03371131535225825,0.03124484486179633,9.739384899017649,1.1226066231206322,1.2609995868992754,24.49531044231987
18.400000000000002,0.0048291176355531335,0.027160179815463613,9.732444310669184,1.1260697548717709,1.267805386971603,24.614697165379162
18.42,-0.00944450475301142,0.01854111353877205,9.749348298808698,1.1091562374772994,1.2649108110594738,24.613352277662063
18.44,0.014650945244167043,0.007024766830597334,9.733168648162815,1.1286877649281248,1.2652210288780519,24.414538780066422
18.46,-0.0031903124789100356,-0.005575571334017057,9.783274320474996,1.10902357992834,1.2573693280998328,24.590706941111467
18.48,0.006353661913652273,0.050208736700187794,9.749201316359953,1.1288260673529327,1.287690229147452,24.453349131214136
18.5,0.056959867017636695,0.02788849987984336,9.73390291666435,1.1172826941498086,1.2717421980542762,24.514947009240313
18.52,0.0050467135879239,0.022612923417937733,9.774958860368566,1.1254165849050284,1.2612748896849189,24.607057374648488
18.54,0.019005188605273456,0.008092183133165875,9.776279797647808,1.1122202141452944,1.2602234449612977,24.468337717420788
18.56,0.0022109134327353806,0.017654386755337096,9.728954325434804,1.1167306264230876,1.2687602594354805,24.661071861207297
18.580000000000002,0.009254476704686439,0.020738247681891614,9.757703884540986,1.125451739970727,1.2465318777396839,24.56803830016161
18.6,0.0068429319788892926,0.025987509348394153,9.773528563844579,1.1293072160071969,1.278787959128899,24.5850703511283
18.62,0.017218503332394313,0.03322201328820565,9.766322680012859,1.132679980510698,1.2631598781300952,24.634799775429123
18.64,0.03444813942401091,0.0034300806452494913,9.766855523486951,1.1102055579992591,1.2722122290236713,24.620427862447205
18.66,0.04579266208835501,-0.009709059396033875,9.80442473671089,1.106645008813334,1.2726931983526626,24.614016143234263
18.68,0.01162813890206197,0.021850904173341484,9.82845675854209,1.1118388952029905,1.2779899124074716,24.497706991892684
18.7,0.01789375181506999,-0.01423764045949389,9.76681187412409,1.1108568426892862,1.2732494062614375,24.462019369161084
18.72,-0.02636131499418908,0.014773890901793462,9.741449119171763,1.1370872943521542,1.2757274243505434,24.528878986042198
18.740000000000002,-0.0005434677194744546,0.011602677609917738,9.768484027520397,1.1347120519925091,1.2784449075652602,24.58998168960328
18.76,0.024391937958224336,0.032159733933795794,9.7790590089604,1.1112194307408465,1.2648961914248604,24.449749438005664
18.78,0.021753430087051592,0.06251391276783048,9.772723425626248,1.1381487556415653,1.2896425276131631,24.599792729528094
18.8,0.004602399954332972,-0.015493758683681642,9.789177009133686,1.133694939477562,1.2715727609758063,24.58368935635948
18.82,0.02066854775357557,0.0694166896370885,9.82906244099697,1.1044222195517943,1.2676647122178109,24.539754586101903
18.84,0.009963180594249096,0.019805248372996933,9.730792306068626,1.1102280154495594,1.2594189320752223,24.559788421277364
18.86,0.02687593017242726,0.0319554888575552,9.76079959530984,1.1037334185480283,1.265629638580868,24.560642720420493
18.88,0.0032656373723643304,-0.002765989241088073,9.811862070181828,1.1192392623349823,1.2715733376887608,24.5913301599131
18.900000000000002,-0.013708111335797439,0.045998173016261926,9.760139902299525,1.1200414444047648,1.2683464854986854,24.616281721442856
18.92,0.002722551246809892,0.027419003067994517,9.792786578812988,1.1197679515381758,1.2854912147999493,24.78685011602408
18.94,-0.07980649707639915,0.025887711963674294,9.788680610285203,1.0990733010901397,1.2631237883498807,24.571228744204333
18.96,0.0021522037456266734,-0.011104462994662632,9.80368959525002,1.1047788099161298,1.2736073217162904,24.50674055319524
18.98,-0.09951851827135227,0.029644000183106475,9.820461255190422,1.1213457884924367,1.255332815417055,24.40634147652742
19.0,-0.05229280615293556,0.04560807475575544,9.780815401266018,1.124641739063687,1.2881777510627104,24.44676601798789
19.02,0.001180398139602504,0.024487974064861216,9.728704322655492,1.0978787312721505,1.25414977477903,24.49938026543947
19.04,0.0009074428811274241,0.05321814072456228,9.754702035730709,1.1049047350905328,1.2865523970794912,24.615691755591957
19.06,-0.04101766459345086,0.052911207319073256,9.82672635122402,1.1275611080470878,1.2641573099593064,24.529513205169316
19.080000000000002,-0.030694632672410894,0.01794906389015884,9.736583567741915,1.1046959094851232,1.2428589052783412,24.59420791653568
19.1,0.020427525393804637,0.06318940861320449,9.78422283202731,1.1163762959071888,1.278395920045766,24.503672116041752
19.12,-0.026889248714050386,0.032707657552858656,9.708804765816797,1.1028929218467194,1.2653521385306234,24.599237869213887
19.14,0.0403236425056841,0.03330973183142193,9.73775232167659,1.1239493108144356,1.2596298959550118,24.633162110116142
19.16,-0.016766398823689903,0.034805936396979924,9.793572616621011,1.094991718248527,1.2701984377869635,24.53175855920799
19.18,-0.007494494312292571,0.0347225036102905,9.772165071873827,1.1116247768896528,1.270024771179527,24.599299823715665
19.2,0.021741715949687018,-0.01875823536173042,9.761722550776337,1.1235608825591858,1.2671071874936781,24.52983513940431
19.22,-0.016396748703922298,0.030640888617231927,9.750642928949986,1.1197270458034523,1.2738738528453604,24.467083806687967
19.240000000000002,-0.04573063265231965,0.007576988764424499,9.720957187142512,1.1084349338065047,1.2645923796835168,24.610495219180724
19.26,-0.024421934873712463,0.06788582592561675,9.788075509102528,1.105518760519227,1.2680887126148914,24.599785333791594
19.28,-0.023582624762564133,0.06758223280994938,9.763531981557893,1.1095862424887524,1.2558794405851257,24.61480800712945
19.3,-0.05783117964385223,0.05339904355795855,9.732435035115795,1.0984113030496006,1.2682392371320754,24.64433973487239
19.32,-0.031135176690738366,0.032088850449097,9.771108088748113,1.1096742095813241,1.2548768633299054,24.548558146835184
19.34,-0.0443271473487227,0.017194016706442876,9.784756955793023,1.109194745311312,1.2482534079020684,24.555016615109622
19.36,-0.003702382217222435,0.024696981301664367,9.765082009918695,1.1051728771658311,1.2568646605985316,24.54680348706441
19.38,-0.026990797673069267,0.0771938707704645,9.772872469873912,1.1186642507161886,1.2555783608643853,24.597782637108736
19.400000000000002,-0.03597631873396544,0.02498763752338401,9.770800329878925,1.0972437842389144,1.2670028612434527,24.55962521813296
19.42,-0.03261663944291901,-0.007791671962006572,9.75205250427174,1.0901719387465811,1.2425627428630326,24.581363488964694
19.44,-0.025444814960961168,0.06041026848370015,9.770954790311912,1.101209068136354,1.2673805772155573,24.514204177756735
19.46,-0.016668163946988317,0.07030179324163502,9.787855361439428,1.1069278582365607,1.2495439978531768,24.490213297457224
19.48,-0.058151627522985166,0.07395884308113669,9.795218383027423,1.1038253092361257,1.2304342061864946,24.500287930148296
19.5,-0.06027323383067594,0.06202228984754263,9.788998594721502,1.1025646952697414,1.2422985043521275,24.60687842016058
19.52,-0.0076954701389699495,0.06576450222909769,9.752231699713724,1.0919753357495108,1.250566029745425,24.570687218897355
19.54,-0.04670373310835163,0.04326952412434359,9.784893974835246,1.0925551211184288,1.257332288529285,24.535198095011484
19.56,-0.07290294369737335,0.0011595958094663267,9.780505555719747,1.0966174112225673,1.2507852747206087,24.62831300813397
